"Time (s)","Acceleration x (m/s^2)","Acceleration y (m/s^2)","Acceleration z (m/s^2)"
2.023460200E-2,7.506561279E-1,2.954162598E0,9.171417236E0
3.231956300E-2,7.267150879E-1,2.951766968E0,9.130706787E0
4.440452300E-2,7.123413086E-1,2.961349487E0,9.147476196E0
5.648948400E-2,7.075500488E-1,2.982894897E0,9.319854736E0
6.857444500E-2,7.195281982E-1,2.973312378E0,9.348587036E0
8.065940600E-2,7.530517578E-1,2.939804077E0,9.142684937E0
9.274436700E-2,7.793731689E-1,2.935012817E0,9.022964478E0
1.048598460E-1,7.722015381E-1,2.942199707E0,9.066070557E0
1.169448070E-1,7.123413086E-1,2.944595337E0,9.090011597E0
1.290297680E-1,6.812133789E-1,2.975708008E0,9.106765747E0
1.411147290E-1,6.692504883E-1,2.999649048E0,9.171417236E0
1.531996890E-1,6.788177490E-1,3.006835938E0,9.262390137E0
1.652846500E-1,7.051544189E-1,3.030776978E0,9.324645996E0
1.773696110E-1,7.267150879E-1,3.028381348E0,9.303100586E0
1.894545720E-1,7.458648682E-1,3.025985718E0,9.236053467E0
2.015395330E-1,7.482604980E-1,3.009231567E0,9.200149536E0
2.136550120E-1,7.506561279E-1,3.006835938E0,9.200149536E0
2.257399730E-1,7.195281982E-1,2.980499268E0,9.173812866E0
2.378249340E-1,6.955871582E-1,2.970932007E0,9.142684937E0
2.499098950E-1,6.860046387E-1,2.987686157E0,9.078033447E0
2.619948550E-1,6.716461182E-1,2.999649048E0,9.166625977E0
2.740798160E-1,6.524810791E-1,3.006835938E0,9.195358276E0
2.861647770E-1,6.668548584E-1,2.999649048E0,9.188171387E0
2.982802560E-1,6.955871582E-1,3.023590088E0,9.188171387E0
3.103652170E-1,7.338867188E-1,3.023590088E0,9.188171387E0
3.224501780E-1,7.386779785E-1,3.042755127E0,9.180984497E0
3.345351390E-1,7.314910889E-1,3.057113647E0,9.157043457E0
3.466201000E-1,7.219238281E-1,3.066696167E0,9.140289307E0
3.587050610E-1,7.386779785E-1,3.081054688E0,9.137893677E0
3.707900220E-1,7.362823486E-1,3.061904907E0,9.104370117E0
3.829055000E-1,7.219238281E-1,3.054718018E0,9.061279297E0
3.949904610E-1,6.979827881E-1,3.047546387E0,9.080429077E0
4.070754220E-1,7.099456787E-1,3.059509277E0,9.166625977E0
4.191603830E-1,7.338867188E-1,3.093032837E0,9.245635986E0
4.312453440E-1,7.243194580E-1,3.114578247E0,9.269577026E0
4.433303050E-1,6.907958984E-1,3.107391357E0,9.240844727E0
4.554152660E-1,6.596679688E-1,3.114578247E0,9.178588867E0
4.675307440E-1,6.596679688E-1,3.121765137E0,9.113952637E0
4.796157050E-1,6.884002686E-1,3.121765137E0,9.135498047E0
4.917006660E-1,6.884002686E-1,3.088241577E0,9.128311157E0
5.037856270E-1,7.314910889E-1,3.047546387E0,8.960723877E0
5.158705880E-1,8.464202881E-1,3.085845947E0,8.881713867E0
5.279555490E-1,7.817687988E-1,3.119369507E0,9.238449097E0
5.400405100E-1,6.141815186E-1,3.097824097E0,9.492233276E0
5.521559880E-1,5.591125488E-1,3.049926758E0,9.255203247E0
5.642409490E-1,6.884002686E-1,3.025985718E0,8.943969727E0
5.763259100E-1,8.081054688E-1,3.018814087E0,8.836227417E0
5.884108710E-1,7.937469482E-1,3.047546387E0,8.915237427E0
6.004958320E-1,6.812133789E-1,3.097824097E0,9.015792847E0
6.125807930E-1,6.213684082E-1,3.155273438E0,9.101974487E0
6.246657540E-1,6.477050781E-1,3.162460327E0,9.288726807E0
6.367812320E-1,7.123413086E-1,3.164855957E0,9.482666016E0
6.488661930E-1,7.698059082E-1,3.131332397E0,9.535324097E0
6.609511540E-1,7.865600586E-1,3.109786987E0,9.327041626E0
6.730361150E-1,7.769927979E-1,3.085845947E0,9.042129517E0
6.851210760E-1,7.458648682E-1,3.071487427E0,8.920028687E0
6.972060370E-1,7.147369385E-1,3.083450317E0,9.020584106E0
7.092909980E-1,6.884002686E-1,3.088241577E0,9.192962646E0
7.214064770E-1,6.884002686E-1,3.085845947E0,9.281539917E0
7.334914380E-1,6.788177490E-1,3.100204468E0,9.269577026E0
7.455763980E-1,7.051544189E-1,3.114578247E0,9.123535156E0
7.576613590E-1,7.219238281E-1,3.121765137E0,9.142684937E0
7.697463200E-1,7.338867188E-1,3.119369507E0,9.128311157E0
7.818312810E-1,7.362823486E-1,3.133728027E0,9.104370117E0
7.939162420E-1,7.267150879E-1,3.126541138E0,9.090011597E0
8.060317210E-1,7.099456787E-1,3.136123657E0,9.123535156E0
8.181166820E-1,7.075500488E-1,3.157669067E0,9.276763916E0
8.302016430E-1,7.003784180E-1,3.145706177E0,9.271972656E0
8.422866040E-1,7.338867188E-1,3.124160767E0,9.082824707E0
8.543715640E-1,7.745971680E-1,3.109786987E0,8.946350098E0
8.664565250E-1,7.386779785E-1,3.114578247E0,8.958328247E0
8.785414860E-1,6.836090088E-1,3.107391357E0,8.979873657E0
8.906569650E-1,6.524810791E-1,3.124160767E0,9.003814697E0
9.027419260E-1,6.429138184E-1,3.150497437E0,9.104370117E0
9.148268870E-1,6.764373779E-1,3.172042847E0,9.236053467E0
9.269118480E-1,6.860046387E-1,3.167251587E0,9.279144287E0
9.389968090E-1,7.243194580E-1,3.172042847E0,9.243240356E0
9.510817700E-1,7.506561279E-1,3.172042847E0,9.164230347E0
9.631667300E-1,7.602233887E-1,3.150497437E0,9.121139526E0
9.752822090E-1,7.386779785E-1,3.140914917E0,9.142684937E0
9.873671700E-1,6.979827881E-1,3.119369507E0,9.161834717E0
9.994521310E-1,6.692504883E-1,3.109786987E0,9.113952637E0
1.011537092E0,6.740417480E-1,3.107391357E0,9.087615967E0
1.023622053E0,6.644592285E-1,3.124160767E0,9.133102417E0
1.035707014E0,6.668548584E-1,3.138519287E0,9.173812866E0
1.047822492E0,6.788177490E-1,3.143310547E0,9.147476196E0
1.059907453E0,6.979827881E-1,3.136123657E0,9.101974487E0
1.071992414E0,7.147369385E-1,3.133728027E0,9.092407227E0
1.084077375E0,7.482604980E-1,3.150497437E0,9.116348267E0
1.096162336E0,7.410736084E-1,3.162460327E0,9.128311157E0
1.108247297E0,7.290954590E-1,3.172042847E0,9.109161377E0
1.120332258E0,7.243194580E-1,3.169647217E0,9.118743896E0
1.132447736E0,7.362823486E-1,3.176834106E0,9.137893677E0
1.144532697E0,7.051544189E-1,3.174438477E0,9.135498047E0
1.156617658E0,6.764373779E-1,3.172042847E0,9.087615967E0
1.168702619E0,6.524810791E-1,3.152877808E0,9.073257446E0
1.180787580E0,6.740417480E-1,3.150497437E0,9.123535156E0
1.192872541E0,7.075500488E-1,3.174438477E0,9.178588867E0
1.204957502E0,7.386779785E-1,3.210342407E0,9.207321167E0
1.217042463E0,7.027587891E-1,3.207946777E0,9.200149536E0
1.229157941E0,6.501007080E-1,3.195983887E0,9.149871826E0
1.241242902E0,6.453094482E-1,3.184005737E0,9.063674927E0
1.253327863E0,6.501007080E-1,3.160064697E0,9.058883667E0
1.265412824E0,6.644592285E-1,3.162460327E0,9.092407227E0
1.277497785E0,6.812133789E-1,3.148101807E0,9.099594116E0
1.289582746E0,7.602233887E-1,3.131332397E0,8.946350098E0
1.301698225E0,8.033294678E-1,3.164855957E0,8.987060547E0
1.313783186E0,6.764373779E-1,3.169647217E0,9.329437256E0
1.325868147E0,5.686950684E-1,3.131332397E0,9.475479126E0
1.337953107E0,5.926361084E-1,3.073883057E0,9.216903687E0
1.350038068E0,7.290954590E-1,3.049926758E0,8.903259277E0
1.362123029E0,7.889556885E-1,3.059509277E0,8.793121338E0
1.374207990E0,7.338867188E-1,3.119369507E0,8.891296387E0
1.386323469E0,6.381225586E-1,3.174438477E0,9.049301147E0
1.398408430E0,6.045989990E-1,3.212738037E0,9.190567017E0
1.410493391E0,6.189727783E-1,3.215133667E0,9.353378296E0
1.422578352E0,6.692504883E-1,3.188796997E0,9.497024536E0
1.434663313E0,7.195281982E-1,3.140914917E0,9.492233276E0
1.446748273E0,7.554321289E-1,3.100204468E0,9.281539917E0
1.458833234E0,7.506561279E-1,3.085845947E0,8.989456177E0
1.470948713E0,7.267150879E-1,3.073883057E0,8.857772827E0
1.483033674E0,6.979827881E-1,3.064300537E0,8.989456177E0
1.495118635E0,6.668548584E-1,3.073883057E0,9.197753906E0
1.507203596E0,6.548767090E-1,3.071487427E0,9.300704956E0
1.519288557E0,6.764373779E-1,3.069091797E0,9.286331177E0
1.531373518E0,6.907958984E-1,3.073883057E0,9.231262207E0
1.543458479E0,7.075500488E-1,3.073883057E0,9.171417236E0
1.555543439E0,7.290954590E-1,3.064300537E0,9.152252197E0
1.567658918E0,7.290954590E-1,3.052322388E0,9.130706787E0
1.579743879E0,7.243194580E-1,3.042755127E0,9.109161377E0
1.591828840E0,7.027587891E-1,3.057113647E0,9.176208496E0
1.603913801E0,7.027587891E-1,3.064300537E0,9.305480957E0
1.615998762E0,7.123413086E-1,3.033172607E0,9.281539917E0
1.628083723E0,7.458648682E-1,3.004440308E0,9.116348267E0
1.640168684E0,7.554321289E-1,2.994873047E0,8.967910767E0
1.652284162E0,7.003784180E-1,2.975708008E0,8.943969727E0
1.664369123E0,6.501007080E-1,2.975708008E0,8.991851807E0
1.676454084E0,6.333312988E-1,2.999649048E0,9.075637817E0
1.688539045E0,6.381225586E-1,3.028381348E0,9.207321167E0
1.700624006E0,6.620635986E-1,3.028381348E0,9.317459106E0
1.712708967E0,7.219238281E-1,3.018814087E0,9.386886597E0
1.724793928E0,7.506561279E-1,3.004440308E0,9.372528076E0
1.736909406E0,7.626190186E-1,2.982894897E0,9.310272217E0
1.748994367E0,7.506561279E-1,2.951766968E0,9.238449097E0
1.761079328E0,7.338867188E-1,2.923034668E0,9.185775757E0
1.773164289E0,6.907958984E-1,2.882339478E0,9.164230347E0
1.785249250E0,6.620635986E-1,2.863189697E0,9.140289307E0
1.797334211E0,6.788177490E-1,2.860794067E0,9.159439087E0
1.809419172E0,6.955871582E-1,2.884735107E0,9.202529907E0
1.821534650E0,6.955871582E-1,2.894317627E0,9.243240356E0
1.833619611E0,7.027587891E-1,2.884735107E0,9.257598877E0
1.845704572E0,7.051544189E-1,2.856002808E0,9.226486206E0
1.857789533E0,7.506561279E-1,2.853607178E0,9.204925537E0
1.869874494E0,7.626190186E-1,2.841644287E0,9.192962646E0
1.881959455E0,7.554321289E-1,2.829666138E0,9.171417236E0
1.894074934E0,7.410736084E-1,2.817703247E0,9.166625977E0
1.906159895E0,7.051544189E-1,2.808120728E0,9.185775757E0
1.918244855E0,7.027587891E-1,2.815307617E0,9.240844727E0
1.930329816E0,7.027587891E-1,2.824874878E0,9.295913696E0
1.942414777E0,6.812133789E-1,2.824874878E0,9.317459106E0
1.954499738E0,6.501007080E-1,2.803329468E0,9.305480957E0
1.966584699E0,6.692504883E-1,2.808120728E0,9.259994507E0
1.978700178E0,6.907958984E-1,2.788970947E0,9.228866577E0
1.990785139E0,6.979827881E-1,2.750656128E0,9.257598877E0
2.002870100E0,7.147369385E-1,2.755447388E0,9.307876587E0
2.014955061E0,8.200836182E-1,2.743469238E0,9.173812866E0
2.027040022E0,8.823242188E-1,2.750656128E0,9.054092407E0
2.039124982E0,7.769927979E-1,2.721923828E0,9.216903687E0
2.051209943E0,6.357269287E-1,2.635742188E0,9.427597046E0
2.063325422E0,6.069946289E-1,2.563903809E0,9.453933716E0
2.075410383E0,6.620635986E-1,2.566299438E0,9.243240356E0
2.087495344E0,7.482604980E-1,2.614181519E0,9.022964478E0
2.099580305E0,7.841644287E-1,2.686019897E0,9.070861816E0
2.111665266E0,7.362823486E-1,2.738693237E0,9.305480957E0
2.123750227E0,6.764373779E-1,2.724319458E0,9.485046387E0
2.135835188E0,6.381225586E-1,2.676437378E0,9.513778687E0
2.147950666E0,6.740417480E-1,2.640518188E0,9.453933716E0
2.160035627E0,7.290954590E-1,2.597427368E0,9.384490967E0
2.172120588E0,7.889556885E-1,2.561523438E0,9.305480957E0
2.184205549E0,7.937469482E-1,2.523208618E0,9.197753906E0
2.196290510E0,7.722015381E-1,2.492080688E0,9.152252197E0
2.208375471E0,7.314910889E-1,2.475326538E0,9.195358276E0
2.220460432E0,7.171325684E-1,2.489685059E0,9.343795776E0
2.232575910E0,7.171325684E-1,2.504058838E0,9.480270386E0
2.244660871E0,7.410736084E-1,2.520812988E0,9.401260376E0
2.256745832E0,7.530517578E-1,2.527999878E0,9.434768677E0
2.268830793E0,7.554321289E-1,2.525604248E0,9.372528076E0
2.280915754E0,7.602233887E-1,2.501663208E0,9.288726807E0
2.293000715E0,7.554321289E-1,2.496871948E0,9.243240356E0
2.305085676E0,7.554321289E-1,2.499267578E0,9.255203247E0
2.317201154E0,7.434692383E-1,2.489685059E0,9.408432007E0
2.329286115E0,7.506561279E-1,2.446594238E0,9.508987427E0
2.341371076E0,7.698059082E-1,2.417861938E0,9.410827637E0
2.353456037E0,7.913513184E-1,2.393920898E0,9.267181396E0
2.365540998E0,8.009338379E-1,2.408294678E0,9.243240356E0
2.377625959E0,7.698059082E-1,2.367584229E0,9.224090576E0
2.389710920E0,7.362823486E-1,2.377166748E0,9.228866577E0
2.401826398E0,6.836090088E-1,2.377166748E0,9.252822876E0
2.413911359E0,6.979827881E-1,2.389129639E0,9.377319336E0
2.425996320E0,7.410736084E-1,2.408294678E0,9.511383057E0
2.438081281E0,7.841644287E-1,2.389129639E0,9.602371216E0
2.450166242E0,8.033294678E-1,2.358016968E0,9.566452026E0
2.462251203E0,7.961425781E-1,2.334060669E0,9.463500977E0
2.474336164E0,7.674102783E-1,2.300552368E0,9.358154297E0
2.486451643E0,7.267150879E-1,2.281402588E0,9.312667847E0
2.498536604E0,7.003784180E-1,2.247879028E0,9.341400146E0
2.510621564E0,7.027587891E-1,2.243087769E0,9.394073486E0
2.522706525E0,7.267150879E-1,2.267028809E0,9.437164307E0
2.534791486E0,7.219238281E-1,2.262237549E0,9.461105347E0
2.546876447E0,7.267150879E-1,2.250274658E0,9.408432007E0
2.558961408E0,7.290954590E-1,2.223937988E0,9.312667847E0
2.571076887E0,7.362823486E-1,2.192810059E0,9.207321167E0
2.583161848E0,7.410736084E-1,2.176055908E0,9.164230347E0
2.595246809E0,7.554321289E-1,2.168869019E0,9.209716797E0
2.607331770E0,7.769927979E-1,2.168869019E0,9.365341187E0
2.619416730E0,7.530517578E-1,2.164077759E0,9.643066406E0
2.631501691E0,7.075500488E-1,2.132949829E0,9.832214355E0
2.643586652E0,6.788177490E-1,2.123382568E0,9.791503906E0
2.655702131E0,6.979827881E-1,2.125778198E0,9.556884766E0
2.667787092E0,7.147369385E-1,2.142532349E0,9.391677856E0
2.679872053E0,7.147369385E-1,2.125778198E0,9.360549927E0
2.691957014E0,7.817687988E-1,2.128158569E0,9.212112427E0
2.704041975E0,8.823242188E-1,2.111404419E0,8.967910767E0
2.716126936E0,8.368377686E-1,2.061126709E0,9.140289307E0
2.728211897E0,7.147369385E-1,1.998886108E0,9.566452026E0
2.740327375E0,6.477050781E-1,1.958175659E0,9.762786865E0
2.752412336E0,6.836090088E-1,1.948608398E0,9.599975586E0
2.764497297E0,7.386779785E-1,1.989303589E0,9.372528076E0
2.776582258E0,7.841644287E-1,2.049163818E0,9.374923706E0
2.788667219E0,7.889556885E-1,2.099441528E0,9.566452026E0
2.800752180E0,7.243194580E-1,2.092254639E0,9.678985596E0
2.812837141E0,6.836090088E-1,2.065917969E0,9.609558105E0
2.824952619E0,6.812133789E-1,2.018035889E0,9.444351196E0
2.837037580E0,7.410736084E-1,1.979721069E0,9.346191406E0
2.849122541E0,7.961425781E-1,1.943817139E0,9.329437256E0
2.861207502E0,8.200836182E-1,1.888748169E0,9.348587036E0
2.873292463E0,8.009338379E-1,1.876770020E0,9.377319336E0
2.885377424E0,7.578277588E-1,1.848037720E0,9.453933716E0
2.897462385E0,7.195281982E-1,1.836074829E0,9.556884766E0
2.909577863E0,7.314910889E-1,1.833679199E0,9.638275146E0
2.921662824E0,7.626190186E-1,1.833679199E0,9.652648926E0
2.933747785E0,7.841644287E-1,1.833679199E0,9.609558105E0
2.945832746E0,8.152923584E-1,1.845657349E0,9.576034546E0
2.957917707E0,8.057098389E-1,1.845657349E0,9.520965576E0
2.970002668E0,7.817687988E-1,1.838470459E0,9.444351196E0
2.982087629E0,7.626190186E-1,1.848037720E0,9.382095337E0
2.994203107E0,7.554321289E-1,1.838470459E0,9.453933716E0
3.006288068E0,7.674102783E-1,1.836074829E0,9.537719727E0
3.018373029E0,7.793731689E-1,1.807342529E0,9.508987427E0
3.030457990E0,7.985382080E-1,1.785797119E0,9.413223267E0
3.042542951E0,7.985382080E-1,1.769042969E0,9.463500977E0
3.054627912E0,7.769927979E-1,1.759460449E0,9.499420166E0
3.066712873E0,7.530517578E-1,1.754669189E0,9.468292236E0
3.078828352E0,7.386779785E-1,1.764251709E0,9.437164307E0
3.090913313E0,7.314910889E-1,1.757064819E0,9.475479126E0
3.102998273E0,7.626190186E-1,1.764251709E0,9.590393066E0
3.115083234E0,7.961425781E-1,1.754669189E0,9.690948486E0
3.127168195E0,8.105010986E-1,1.725936890E0,9.695739746E0
3.139253156E0,7.889556885E-1,1.675659180E0,9.611938477E0
3.151338117E0,7.602233887E-1,1.666091919E0,9.535324097E0
3.163453596E0,7.290954590E-1,1.632568359E0,9.497024536E0
3.175538557E0,7.099456787E-1,1.611022949E0,9.485046387E0
3.187623518E0,7.362823486E-1,1.606231689E0,9.508987427E0
3.199708479E0,7.530517578E-1,1.620590210E0,9.595184326E0
3.211793439E0,7.578277588E-1,1.634963989E0,9.619125366E0
3.223878400E0,7.578277588E-1,1.594253540E0,9.501815796E0
3.235963361E0,7.314910889E-1,1.560745239E0,9.283935547E0
3.248078840E0,7.290954590E-1,1.503280640E0,9.228866577E0
3.260163801E0,7.482604980E-1,1.503280640E0,9.212112427E0
3.272248762E0,8.033294678E-1,1.498489380E0,9.358154297E0
3.284333723E0,8.128967285E-1,1.479339600E0,9.645462036E0
3.296418684E0,7.602233887E-1,1.462585449E0,9.959106445E0
3.308503645E0,6.907958984E-1,1.433853149E0,1.008120728E1
3.320588605E0,6.788177490E-1,1.426666260E0,9.927978516E0
3.332704084E0,7.171325684E-1,1.438629150E0,9.734054565E0
3.344789045E0,7.267150879E-1,1.448211670E0,9.678985596E0
3.356874006E0,7.913513184E-1,1.469757080E0,9.377319336E0
3.368958967E0,9.038848877E-1,1.481735229E0,9.080429077E0
3.381043928E0,8.775482178E-1,1.441024780E0,9.226486206E0
3.393128889E0,7.482604980E-1,1.366806030E0,9.626312256E0
3.405213850E0,6.548767090E-1,1.309356689E0,9.734054565E0
3.417329328E0,6.740417480E-1,1.297378540E0,9.571243286E0
3.429414289E0,7.338867188E-1,1.318923950E0,9.456329346E0
3.441499250E0,7.793731689E-1,1.378784180E0,9.576034546E0
3.453584211E0,7.937469482E-1,1.426666260E0,9.805877686E0
3.465669172E0,7.386779785E-1,1.405120850E0,9.913619995E0
3.477754133E0,6.812133789E-1,1.354843140E0,9.808273315E0
3.489839094E0,6.836090088E-1,1.328506470E0,9.657440186E0
3.501954572E0,7.434692383E-1,1.306961060E0,9.561660767E0
3.514039533E0,7.817687988E-1,1.280624390E0,9.465896606E0
3.526124494E0,7.985382080E-1,1.259063721E0,9.362945557E0
3.538209455E0,7.793731689E-1,1.218368530E0,9.334213257E0
3.550294416E0,7.362823486E-1,1.187240601E0,9.418014526E0
3.562379377E0,7.147369385E-1,1.170486450E0,9.552093506E0
3.574464338E0,7.290954590E-1,1.156112671E0,9.681381226E0
3.586579816E0,7.745971680E-1,1.163299561E0,9.791503906E0
3.598664777E0,7.937469482E-1,1.177673340E0,9.868118286E0
3.610749738E0,7.937469482E-1,1.189636230E0,9.851364136E0
3.622834699E0,7.674102783E-1,1.180068970E0,9.712509155E0
3.634919660E0,7.482604980E-1,1.172882080E0,9.537719727E0
3.647004621E0,7.434692383E-1,1.194427490E0,9.420410156E0
3.659089582E0,7.769927979E-1,1.218368530E0,9.422805786E0
3.671205061E0,7.937469482E-1,1.196823120E0,9.499420166E0
3.683290022E0,7.961425781E-1,1.160903931E0,9.554489136E0
3.695374982E0,7.961425781E-1,1.129791260E0,9.592788696E0
3.707459943E0,8.057098389E-1,1.110626221E0,9.746017456E0
3.719544904E0,7.889556885E-1,1.113021851E0,9.865737915E0
3.731629865E0,7.698059082E-1,1.120208740E0,9.851364136E0
3.743714826E0,7.506561279E-1,1.129791260E0,9.769958496E0
3.755830305E0,7.674102783E-1,1.165695190E0,9.640670776E0
3.767915266E0,7.889556885E-1,1.192031860E0,9.535324097E0
3.780000227E0,8.009338379E-1,1.182449341E0,9.480270386E0
3.792085188E0,7.961425781E-1,1.139358521E0,9.439559937E0
3.804170148E0,7.482604980E-1,1.086685181E0,9.391677856E0
3.816255109E0,7.243194580E-1,1.053176880E0,9.453933716E0
3.828370588E0,7.290954590E-1,1.029220581E0,9.664611816E0
3.840455549E0,7.338867188E-1,1.002883911E0,9.860946655E0
3.852540510E0,7.530517578E-1,9.837341309E-1,9.908828735E0
3.864625471E0,7.769927979E-1,9.909210205E-1,9.863342285E0
3.876710432E0,7.745971680E-1,9.957122803E-1,9.779541016E0
3.888795393E0,7.338867188E-1,9.957122803E-1,9.635894775E0
3.900880354E0,7.003784180E-1,9.813385010E-1,9.427597046E0
3.912995832E0,7.075500488E-1,9.693756104E-1,9.307876587E0
3.925080793E0,7.722015381E-1,9.909210205E-1,9.350982666E0
3.937165754E0,8.033294678E-1,1.005279541E0,9.485046387E0
3.949250715E0,7.985382080E-1,1.012466431E0,9.662231445E0
3.961335676E0,7.362823486E-1,9.909210205E-1,9.815460205E0
3.973420637E0,7.123413086E-1,9.861297607E-1,9.887283325E0
3.985505598E0,7.195281982E-1,9.909210205E-1,9.887283325E0
3.997590559E0,7.338867188E-1,1.002883911E0,9.839401245E0
4.009706037E0,7.267150879E-1,1.000503540E0,9.695739746E0
4.021790998E0,7.889556885E-1,1.010070801E0,9.427597046E0
4.033875959E0,8.727569580E-1,1.019653320E0,9.204925537E0
4.045960920E0,7.769927979E-1,9.645843506E-1,9.465896606E0
4.058045881E0,6.764373779E-1,8.999481201E-1,9.753204346E0
4.070130842E0,6.524810791E-1,8.568420410E-1,9.781936646E0
4.082215803E0,6.955871582E-1,8.592376709E-1,9.597579956E0
4.094331281E0,7.314910889E-1,9.143066406E-1,9.518569946E0
4.106416242E0,7.578277588E-1,9.813385010E-1,9.741226196E0
4.118501203E0,7.698059082E-1,1.012466431E0,9.951919556E0
4.130586164E0,7.195281982E-1,9.861297607E-1,9.846572876E0
4.142671125E0,6.596679688E-1,9.502258301E-1,9.688552856E0
4.154756086E0,7.003784180E-1,9.454345703E-1,9.669403076E0
4.166841047E0,7.458648682E-1,9.358520508E-1,9.599975586E0
4.178956525E0,7.602233887E-1,9.047241211E-1,9.403656006E0
4.191041486E0,7.386779785E-1,8.736114502E-1,9.245635986E0
4.203126447E0,7.243194580E-1,8.544464111E-1,9.288726807E0
4.215211408E0,7.027587891E-1,8.281097412E-1,9.516174316E0
4.227296369E0,7.099456787E-1,8.185424805E-1,9.774749756E0
4.239381330E0,7.410736084E-1,8.065643311E-1,9.971069336E0
4.251466291E0,7.674102783E-1,8.161468506E-1,9.978256226E0
4.263581770E0,7.745971680E-1,8.233337402E-1,9.916015625E0
4.275666730E0,7.602233887E-1,8.448791504E-1,9.803482056E0
4.287751691E0,7.219238281E-1,8.640289307E-1,9.652648926E0
4.299836652E0,7.171325684E-1,8.855743408E-1,9.532943726E0
4.311921613E0,7.147369385E-1,9.143066406E-1,9.540115356E0
4.324006574E0,7.243194580E-1,9.334564209E-1,9.631103516E0
4.336122053E0,7.386779785E-1,8.927612305E-1,9.667007446E0
4.348207014E0,7.434692383E-1,8.472747803E-1,9.568847656E0
4.360291975E0,7.817687988E-1,8.496551514E-1,9.621520996E0
4.372376936E0,7.745971680E-1,8.520507812E-1,9.623916626E0
4.384461897E0,7.506561279E-1,8.568420410E-1,9.547302246E0
4.396546857E0,7.195281982E-1,8.616333008E-1,9.621520996E0
4.408631818E0,7.290954590E-1,8.736114502E-1,9.750808716E0
4.420747297E0,7.458648682E-1,9.071197510E-1,9.803482056E0
4.432832258E0,7.506561279E-1,9.023284912E-1,9.813064575E0
4.444917219E0,7.338867188E-1,8.616333008E-1,9.746017456E0
4.457002180E0,7.075500488E-1,8.257141113E-1,9.647857666E0
4.469087141E0,6.788177490E-1,8.209381104E-1,9.573638916E0
4.481172102E0,6.788177490E-1,8.185424805E-1,9.528152466E0
4.493257063E0,6.860046387E-1,8.017730713E-1,9.547302246E0
4.505372541E0,7.195281982E-1,7.922058105E-1,9.599975586E0
4.517457502E0,7.386779785E-1,7.874145508E-1,9.645462036E0
4.529542463E0,7.602233887E-1,7.946014404E-1,9.671798706E0
4.541627424E0,7.195281982E-1,7.993774414E-1,9.702926636E0
4.553712385E0,6.716461182E-1,7.898101807E-1,9.736450195E0
4.565797346E0,6.644592285E-1,7.946014404E-1,9.844177246E0
4.577882307E0,7.171325684E-1,8.041687012E-1,9.837005615E0
4.589997785E0,7.650146484E-1,7.993774414E-1,9.638275146E0
4.602082746E0,7.458648682E-1,8.113555908E-1,9.396469116E0
4.614167707E0,7.099456787E-1,8.233337402E-1,9.329437256E0
4.626252668E0,7.099456787E-1,8.376922607E-1,9.410827637E0
4.638337629E0,7.195281982E-1,8.376922607E-1,9.571243286E0
4.650422590E0,7.099456787E-1,8.185424805E-1,9.781936646E0
4.662507551E0,7.003784180E-1,8.089599609E-1,9.990234375E0
4.674623029E0,6.907958984E-1,7.969970703E-1,1.007164001E1
4.686707990E0,7.003784180E-1,8.065643311E-1,9.927978516E0
4.698792951E0,7.123413086E-1,8.137512207E-1,9.726867676E0
4.710877912E0,7.003784180E-1,8.137512207E-1,9.511383057E0
4.722962873E0,7.243194580E-1,8.161468506E-1,9.286331177E0
4.735047834E0,8.320465088E-1,8.424835205E-1,9.149871826E0
4.747132795E0,7.793731689E-1,7.778320312E-1,9.492233276E0
4.759248273E0,6.644592285E-1,6.988220215E-1,9.882492065E0
4.771333234E0,6.237640381E-1,6.341857910E-1,9.882492065E0
4.783418195E0,6.716461182E-1,6.437683105E-1,9.587997437E0
4.795503156E0,7.410736084E-1,7.060089111E-1,9.473083496E0
4.807588117E0,7.793731689E-1,7.922058105E-1,9.767562866E0
4.819673078E0,7.889556885E-1,8.329010010E-1,1.011712646E1
4.831758039E0,7.219238281E-1,8.161468506E-1,1.006924438E1
4.843873518E0,6.524810791E-1,7.754364014E-1,9.777145386E0
4.855958479E0,6.716461182E-1,7.538909912E-1,9.554489136E0
4.868043439E0,7.027587891E-1,7.514953613E-1,9.377319336E0
4.880128400E0,7.195281982E-1,7.586822510E-1,9.231262207E0
4.892213361E0,7.075500488E-1,7.371368408E-1,9.238449097E0
4.904298322E0,6.788177490E-1,7.108001709E-1,9.468292236E0
4.916383283E0,6.644592285E-1,6.724853516E-1,9.753204346E0
4.928498762E0,7.027587891E-1,6.461486816E-1,9.937561035E0
4.940583723E0,7.362823486E-1,6.413726807E-1,1.000938416E1
4.952668684E0,7.434692383E-1,6.677093506E-1,9.932769775E0
4.964753645E0,7.434692383E-1,6.940460205E-1,9.779541016E0
4.976838605E0,7.434692383E-1,7.084045410E-1,9.635894775E0
4.988923566E0,7.267150879E-1,7.227630615E-1,9.549697876E0
5.001008527E0,7.051544189E-1,7.251586914E-1,9.542510986E0
5.013124006E0,7.171325684E-1,7.490997314E-1,9.623916626E0
5.025208967E0,7.195281982E-1,7.514953613E-1,9.741226196E0
5.037293928E0,7.530517578E-1,7.275543213E-1,9.743621826E0
5.049378889E0,7.482604980E-1,6.772766113E-1,9.678985596E0
5.061463850E0,7.722015381E-1,6.724853516E-1,9.583221436E0
5.073548811E0,7.889556885E-1,6.868591309E-1,9.568847656E0
5.085633772E0,7.793731689E-1,7.060089111E-1,9.592788696E0
5.097749250E0,7.530517578E-1,7.060089111E-1,9.698135376E0
5.109834211E0,7.243194580E-1,7.299499512E-1,9.772354126E0
5.121919172E0,7.290954590E-1,7.419281006E-1,9.757995605E0
5.134004133E0,7.243194580E-1,7.467041016E-1,9.741226196E0
5.146089094E0,7.123413086E-1,7.395324707E-1,9.746017456E0
5.158174055E0,6.812133789E-1,6.916503906E-1,9.669403076E0
5.170259016E0,6.692504883E-1,6.677093506E-1,9.566452026E0
5.182374494E0,6.836090088E-1,6.509399414E-1,9.540115356E0
5.194459455E0,7.003784180E-1,6.581268311E-1,9.626312256E0
5.206544416E0,7.243194580E-1,6.509399414E-1,9.748413086E0
5.218629377E0,7.386779785E-1,6.461486816E-1,9.815460205E0
5.230714338E0,7.362823486E-1,6.677093506E-1,9.769958496E0
5.242799299E0,7.219238281E-1,7.012176514E-1,9.664611816E0
5.254884260E0,6.692504883E-1,6.916503906E-1,9.602371216E0
5.266999738E0,6.405181885E-1,6.868591309E-1,9.556884766E0
5.279084699E0,6.620635986E-1,6.748809814E-1,9.583221436E0
5.291169660E0,7.267150879E-1,7.036132812E-1,9.652648926E0
5.303254621E0,7.722015381E-1,6.964263916E-1,9.700531006E0
5.315339582E0,7.650146484E-1,6.796722412E-1,9.643066406E0
5.327424543E0,7.243194580E-1,6.724853516E-1,9.532943726E0
5.339509504E0,6.812133789E-1,6.748809814E-1,9.544906616E0
5.351624982E0,6.740417480E-1,6.820678711E-1,9.702926636E0
5.363709943E0,6.812133789E-1,6.653137207E-1,9.755599976E0
5.375794904E0,7.099456787E-1,6.533355713E-1,9.796295166E0
5.387879865E0,7.219238281E-1,6.748809814E-1,9.856155396E0
5.399964826E0,7.027587891E-1,6.868591309E-1,9.899246216E0
5.412049787E0,6.692504883E-1,6.988220215E-1,9.779541016E0
5.424134748E0,6.836090088E-1,7.108001709E-1,9.583221436E0
5.436250227E0,6.812133789E-1,7.155914307E-1,9.508987427E0
5.448335188E0,6.836090088E-1,7.060089111E-1,9.480270386E0
5.460420148E0,8.033294678E-1,7.203826904E-1,9.355758667E0
5.472505109E0,8.368377686E-1,7.155914307E-1,9.334213257E0
5.484590070E0,7.099456787E-1,6.341857910E-1,9.700531006E0
5.496675031E0,6.333312988E-1,5.671539307E-1,9.987838745E0
5.508759992E0,6.524810791E-1,5.360260010E-1,9.889678955E0
5.520875471E0,7.267150879E-1,5.791168213E-1,9.631103516E0
5.532960432E0,7.650146484E-1,6.700897217E-1,9.702926636E0
5.545045393E0,7.698059082E-1,7.371368408E-1,9.947128296E0
5.557130354E0,7.434692383E-1,7.443237305E-1,9.985443115E0
5.569215314E0,6.764373779E-1,7.179870605E-1,9.767562866E0
5.581300275E0,6.668548584E-1,7.108001709E-1,9.609558105E0
5.593385236E0,7.003784180E-1,7.251586914E-1,9.537719727E0
5.605500715E0,7.123413086E-1,7.131958008E-1,9.389282227E0
5.617585676E0,6.907958984E-1,6.844635010E-1,9.257598877E0
5.629670637E0,6.477050781E-1,6.437683105E-1,9.283935547E0
5.641755598E0,6.572723389E-1,6.030578613E-1,9.480270386E0
5.653840559E0,7.027587891E-1,5.934753418E-1,9.791503906E0
5.665925520E0,7.506561279E-1,5.719299316E-1,1.005487061E1
5.678010480E0,7.602233887E-1,5.647583008E-1,1.014106750E1
5.690125959E0,7.410736084E-1,5.695343018E-1,1.005247498E1
5.702210920E0,7.362823486E-1,5.910949707E-1,9.844177246E0
5.714295881E0,7.099456787E-1,6.317901611E-1,9.585617065E0
5.726380842E0,7.171325684E-1,6.653137207E-1,9.374923706E0
5.738465803E0,7.219238281E-1,6.772766113E-1,9.322250366E0
5.750550764E0,7.243194580E-1,6.940460205E-1,9.499420166E0
5.762635725E0,7.290954590E-1,6.988220215E-1,9.762786865E0
5.774751203E0,7.386779785E-1,6.365814209E-1,9.870513916E0
5.786836164E0,7.362823486E-1,5.958709717E-1,9.793899536E0
5.798921125E0,7.482604980E-1,6.126403809E-1,9.671798706E0
5.811006086E0,7.506561279E-1,6.533355713E-1,9.607162476E0
5.823091047E0,7.314910889E-1,6.748809814E-1,9.607162476E0
5.835176008E0,7.267150879E-1,6.700897217E-1,9.635894775E0
5.847260969E0,7.243194580E-1,6.796722412E-1,9.683776855E0
5.859376447E0,7.434692383E-1,7.060089111E-1,9.714889526E0
5.871461408E0,7.314910889E-1,7.012176514E-1,9.755599976E0
5.883546369E0,7.003784180E-1,6.820678711E-1,9.750808716E0
5.895631330E0,6.644592285E-1,6.461486816E-1,9.674194336E0
5.907716291E0,6.644592285E-1,6.246032715E-1,9.597579956E0
5.919801252E0,6.788177490E-1,6.293945312E-1,9.619125366E0
5.931886213E0,7.027587891E-1,6.317901611E-1,9.705322266E0
5.944001691E0,7.267150879E-1,6.269989014E-1,9.717285156E0
5.956086652E0,7.506561279E-1,6.341857910E-1,9.650253296E0
5.968171613E0,7.386779785E-1,6.533355713E-1,9.583221436E0
5.980256574E0,7.003784180E-1,6.629180908E-1,9.583221436E0
5.992341535E0,6.548767090E-1,6.485443115E-1,9.678985596E0
6.004426496E0,6.477050781E-1,6.437683105E-1,9.729263306E0
6.016511457E0,6.860046387E-1,6.389770508E-1,9.669403076E0
6.028626936E0,7.195281982E-1,6.461486816E-1,9.590393066E0
6.040711897E0,7.769927979E-1,6.772766113E-1,9.587997437E0
6.052796857E0,7.554321289E-1,6.916503906E-1,9.650253296E0
6.064881818E0,7.290954590E-1,6.964263916E-1,9.753204346E0
6.076966779E0,6.884002686E-1,6.940460205E-1,9.829818726E0
6.089051740E0,6.860046387E-1,6.796722412E-1,9.750808716E0
6.101167219E0,6.668548584E-1,6.653137207E-1,9.633499146E0
6.113252180E0,6.716461182E-1,6.724853516E-1,9.583221436E0
6.125337141E0,6.907958984E-1,6.796722412E-1,9.542510986E0
6.137422102E0,7.171325684E-1,6.964263916E-1,9.544906616E0
6.149507063E0,7.171325684E-1,6.988220215E-1,9.674194336E0
6.161592023E0,7.051544189E-1,6.796722412E-1,9.846572876E0
6.173676984E0,6.788177490E-1,6.629180908E-1,9.887283325E0
6.185792463E0,6.740417480E-1,6.700897217E-1,9.755599976E0
6.197877424E0,6.907958984E-1,7.012176514E-1,9.702926636E0
6.209962385E0,7.027587891E-1,7.251586914E-1,9.765167236E0
6.222047346E0,7.099456787E-1,7.275543213E-1,9.655044556E0
6.234132307E0,8.176879883E-1,7.658691406E-1,9.374923706E0
6.246217268E0,7.961425781E-1,7.419281006E-1,9.394073486E0
6.258302229E0,6.548767090E-1,6.605224609E-1,9.561660767E0
6.270417707E0,6.069946289E-1,6.150360107E-1,9.734054565E0
6.282502668E0,6.716461182E-1,6.126403809E-1,9.604766846E0
6.294587629E0,7.554321289E-1,6.748809814E-1,9.473083496E0
6.306672590E0,7.722015381E-1,7.467041016E-1,9.729263306E0
6.318757551E0,7.674102783E-1,7.778320312E-1,1.016500854E1
6.330842512E0,7.219238281E-1,7.514953613E-1,1.022724915E1
6.342927473E0,6.644592285E-1,7.371368408E-1,9.925582886E0
6.355012434E0,6.548767090E-1,7.467041016E-1,9.611938477E0
6.367127912E0,6.692504883E-1,7.826232910E-1,9.420410156E0
6.379212873E0,6.955871582E-1,7.778320312E-1,9.269577026E0
6.391297834E0,6.524810791E-1,7.371368408E-1,9.224090576E0
6.403382795E0,6.477050781E-1,6.868591309E-1,9.329437256E0
6.415467756E0,6.740417480E-1,6.485443115E-1,9.587997437E0
6.427552717E0,7.171325684E-1,6.461486816E-1,9.899246216E0
6.439637678E0,7.650146484E-1,6.389770508E-1,1.006684875E1
6.451753156E0,7.745971680E-1,6.365814209E-1,1.003092957E1
6.463838117E0,7.650146484E-1,6.533355713E-1,9.901641846E0
6.475923078E0,7.434692383E-1,6.677093506E-1,9.722076416E0
6.488008039E0,7.075500488E-1,6.844635010E-1,9.576034546E0
6.500093000E0,6.907958984E-1,7.251586914E-1,9.485046387E0
6.512177961E0,7.099456787E-1,7.634735107E-1,9.465896606E0
6.524262922E0,7.362823486E-1,8.017730713E-1,9.607162476E0
6.536378400E0,7.243194580E-1,7.969970703E-1,9.753204346E0
6.548463361E0,7.482604980E-1,7.634735107E-1,9.719680786E0
6.560548322E0,7.338867188E-1,7.467041016E-1,9.623916626E0
6.572633283E0,7.482604980E-1,7.706604004E-1,9.602371216E0
6.584718244E0,7.410736084E-1,8.113555908E-1,9.712509155E0
6.596803205E0,7.314910889E-1,8.592376709E-1,9.832214355E0
6.608888166E0,6.907958984E-1,9.071197510E-1,9.856155396E0
6.621003645E0,6.692504883E-1,9.358520508E-1,9.784332275E0
6.633088605E0,6.716461182E-1,9.909210205E-1,9.726867676E0
6.645173566E0,7.051544189E-1,1.060348511E0,9.631103516E0
6.657258527E0,6.884002686E-1,1.074722290E0,9.485046387E0
6.669343488E0,6.812133789E-1,1.089080811E0,9.382095337E0
6.681428449E0,6.620635986E-1,1.084289551E0,9.389282227E0
6.693543928E0,6.644592285E-1,1.096267700E0,9.530548096E0
6.705628889E0,6.668548584E-1,1.103454590E0,9.772354126E0
6.717713850E0,6.477050781E-1,1.127395630E0,9.920791626E0
6.729798811E0,6.740417480E-1,1.158508301E0,9.858551025E0
6.741883772E0,7.051544189E-1,1.227951050E0,9.671798706E0
6.753968732E0,7.003784180E-1,1.287796021E0,9.489837646E0
6.766053693E0,6.501007080E-1,1.306961060E0,9.372528076E0
6.778169172E0,6.357269287E-1,1.318923950E0,9.346191406E0
6.790254133E0,6.381225586E-1,1.330902100E0,9.377319336E0
6.802339094E0,6.692504883E-1,1.371597290E0,9.463500977E0
6.814424055E0,7.003784180E-1,1.405120850E0,9.655044556E0
6.826509016E0,7.075500488E-1,1.457794189E0,9.801086426E0
6.838593977E0,6.907958984E-1,1.512863159E0,9.789123535E0
6.850678938E0,6.572723389E-1,1.529617310E0,9.592788696E0
6.862794416E0,6.453094482E-1,1.565521240E0,9.379714966E0
6.874879377E0,6.692504883E-1,1.579895020E0,9.346191406E0
6.886964338E0,7.075500488E-1,1.596649170E0,9.446746826E0
6.899049299E0,6.979827881E-1,1.591857910E0,9.561660767E0
6.911134260E0,6.644592285E-1,1.603836060E0,9.664611816E0
6.923219221E0,6.213684082E-1,1.618194580E0,9.690948486E0
6.935304182E0,6.022033691E-1,1.644531250E0,9.640670776E0
6.947419660E0,6.333312988E-1,1.666091919E0,9.544906616E0
6.959504621E0,6.596679688E-1,1.687637329E0,9.475479126E0
6.971589582E0,6.524810791E-1,1.711578369E0,9.513778687E0
6.983674543E0,6.405181885E-1,1.735519409E0,9.549697876E0
6.995759504E0,6.405181885E-1,1.752273560E0,9.492233276E0
7.007844465E0,6.477050781E-1,1.788192749E0,9.451538086E0
7.019929426E0,6.548767090E-1,1.807342529E0,9.494628906E0
7.032044904E0,6.860046387E-1,1.836074829E0,9.456329346E0
7.044129865E0,7.793731689E-1,1.891143799E0,9.329437256E0
7.056214826E0,7.961425781E-1,1.948608398E0,9.406051636E0
7.068299787E0,6.668548584E-1,1.910293579E0,9.635894775E0
7.080384748E0,5.662994385E-1,1.857620239E0,9.738845825E0
7.092469709E0,6.022033691E-1,1.850433350E0,9.497024536E0
7.104554670E0,6.692504883E-1,1.876770020E0,9.092407227E0
7.116670148E0,7.123413086E-1,1.943817139E0,8.931991577E0
7.128755109E0,7.219238281E-1,2.032394409E0,9.250427246E0
7.140840070E0,7.003784180E-1,2.085067749E0,9.753204346E0
7.152925031E0,6.141815186E-1,2.101837158E0,9.939956665E0
7.165009992E0,5.734863281E-1,2.116195679E0,9.832214355E0
7.177094953E0,6.045989990E-1,2.125778198E0,9.638275146E0
7.189179914E0,6.548767090E-1,2.111404419E0,9.494628906E0
7.201295979E0,6.716461182E-1,2.082672119E0,9.353378296E0
7.213380940E0,6.860046387E-1,2.056335449E0,9.219299316E0
7.225465900E0,6.788177490E-1,2.061126709E0,9.209716797E0
7.237550861E0,6.860046387E-1,2.089859009E0,9.346191406E0
7.249635822E0,7.075500488E-1,2.120986938E0,9.434768677E0
7.261720783E0,6.955871582E-1,2.161682129E0,9.561660767E0
7.273805744E0,6.955871582E-1,2.197601318E0,9.556884766E0
7.285921223E0,6.716461182E-1,2.216751099E0,9.499420166E0
7.298006184E0,6.764373779E-1,2.235900879E0,9.446746826E0
7.310091145E0,6.860046387E-1,2.219146729E0,9.382095337E0
7.322176106E0,6.955871582E-1,2.233505249E0,9.327041626E0
7.334261066E0,7.051544189E-1,2.240692139E0,9.298309326E0
7.346346027E0,7.003784180E-1,2.262237549E0,9.350982666E0
7.358430988E0,6.764373779E-1,2.295761108E0,9.583221436E0
7.370546467E0,6.764373779E-1,2.276611328E0,9.540115356E0
7.382631428E0,6.788177490E-1,2.276611328E0,9.341400146E0
7.394716389E0,6.860046387E-1,2.290969849E0,9.207321167E0
7.406801350E0,6.884002686E-1,2.317306519E0,9.219299316E0
7.418886311E0,6.668548584E-1,2.346038818E0,9.295913696E0
7.430971272E0,6.453094482E-1,2.367584229E0,9.329437256E0
7.443056233E0,6.261444092E-1,2.405899048E0,9.367736816E0
7.455171711E0,6.357269287E-1,2.427444458E0,9.418014526E0
7.467256672E0,6.836090088E-1,2.448989868E0,9.477874756E0
7.479341633E0,6.860046387E-1,2.448989868E0,9.487442017E0
7.491426594E0,6.812133789E-1,2.429840088E0,9.437164307E0
7.503511555E0,6.812133789E-1,2.422653198E0,9.365341187E0
7.515596516E0,7.027587891E-1,2.415466309E0,9.317459106E0
7.527681477E0,6.860046387E-1,2.398712158E0,9.307876587E0
7.539796955E0,6.644592285E-1,2.396316528E0,9.327041626E0
7.551881916E0,6.692504883E-1,2.410675049E0,9.379714966E0
7.563966877E0,6.860046387E-1,2.441802979E0,9.420410156E0
7.576051838E0,6.596679688E-1,2.465744019E0,9.420410156E0
7.588136799E0,6.596679688E-1,2.463348389E0,9.362945557E0
7.600221760E0,6.548767090E-1,2.484909058E0,9.298309326E0
7.612306721E0,6.716461182E-1,2.501663208E0,9.276763916E0
7.624422199E0,6.836090088E-1,2.516021729E0,9.283935547E0
7.636507160E0,6.955871582E-1,2.539962769E0,9.286331177E0
7.648592121E0,6.955871582E-1,2.544754028E0,9.269577026E0
7.660677082E0,7.003784180E-1,2.563903809E0,9.279144287E0
7.672762043E0,6.812133789E-1,2.583068848E0,9.312667847E0
7.684847004E0,6.716461182E-1,2.590240479E0,9.343795776E0
7.696962483E0,6.644592285E-1,2.599822998E0,9.341400146E0
7.709047443E0,6.740417480E-1,2.609405518E0,9.341400146E0
7.721132404E0,6.620635986E-1,2.609405518E0,9.346191406E0
7.733217365E0,6.620635986E-1,2.618972778E0,9.353378296E0
7.745302326E0,6.572723389E-1,2.623764038E0,9.362945557E0
7.757387287E0,6.668548584E-1,2.626159668E0,9.339004517E0
7.769472248E0,6.668548584E-1,2.640518188E0,9.315063477E0
7.781587727E0,6.524810791E-1,2.628555298E0,9.271972656E0
7.793672688E0,6.357269287E-1,2.611801147E0,9.231262207E0
7.805757649E0,6.285400391E-1,2.623764038E0,9.219299316E0
7.817842609E0,6.477050781E-1,2.638137817E0,9.267181396E0
7.829927570E0,6.668548584E-1,2.683624268E0,9.327041626E0
7.842012531E0,6.668548584E-1,2.712356567E0,9.377319336E0
7.854097492E0,6.285400391E-1,2.705169678E0,9.355758667E0
7.866182453E0,6.189727783E-1,2.719528198E0,9.252822876E0
7.878297932E0,6.213684082E-1,2.717132568E0,9.185775757E0
7.890382893E0,6.596679688E-1,2.736297607E0,9.233657837E0
7.902467854E0,6.716461182E-1,2.743469238E0,9.245635986E0
7.914552815E0,6.884002686E-1,2.738693237E0,9.135498047E0
7.926637775E0,7.482604980E-1,2.791366577E0,9.152252197E0
7.938722736E0,6.644592285E-1,2.817703247E0,9.427597046E0
7.950807697E0,5.734863281E-1,2.791366577E0,9.549697876E0
7.962923176E0,5.806579590E-1,2.755447388E0,9.384490967E0
7.975008137E0,6.524810791E-1,2.721923828E0,9.046920776E0
7.987093098E0,6.979827881E-1,2.717132568E0,8.802703857E0
7.999178059E0,7.219238281E-1,2.774597168E0,8.857772827E0
8.011263020E0,6.740417480E-1,2.841644287E0,9.178588867E0
8.023347981E0,5.830535889E-1,2.882339478E0,9.389282227E0
8.035432941E0,5.471496582E-1,2.901489258E0,9.444351196E0
8.047548420E0,5.758666992E-1,2.901489258E0,9.475479126E0
8.059633381E0,6.333312988E-1,2.879943848E0,9.520965576E0
8.071718342E0,6.860046387E-1,2.851211548E0,9.432373047E0
8.083803303E0,7.003784180E-1,2.827270508E0,9.219299316E0
8.095888264E0,6.884002686E-1,2.822479248E0,9.051696777E0
8.107973225E0,6.716461182E-1,2.832061768E0,9.042129517E0
8.120058186E0,6.548767090E-1,2.841644287E0,9.159439087E0
8.132173664E0,6.692504883E-1,2.875152588E0,9.269577026E0
8.144258625E0,6.620635986E-1,2.891921997E0,9.305480957E0
8.156343586E0,6.596679688E-1,2.913467407E0,9.307876587E0
8.168428547E0,6.572723389E-1,2.915863037E0,9.271972656E0
8.180513508E0,6.405181885E-1,2.901489258E0,9.219299316E0
8.192598469E0,6.716461182E-1,2.913467407E0,9.161834717E0
8.204683430E0,6.884002686E-1,2.915863037E0,9.128311157E0
8.216798908E0,6.668548584E-1,2.923034668E0,9.111557007E0
8.228883869E0,6.692504883E-1,2.956558228E0,9.257598877E0
8.240968830E0,6.644592285E-1,2.980499268E0,9.370132446E0
8.253053791E0,6.716461182E-1,2.958953857E0,9.293518066E0
8.265138752E0,6.740417480E-1,2.923034668E0,9.094802856E0
8.277223713E0,7.314910889E-1,2.966140747E0,9.025360107E0
8.289308674E0,7.171325684E-1,2.978103638E0,9.037338257E0
8.301424152E0,6.596679688E-1,2.990081787E0,9.054092407E0
8.313509113E0,6.309356689E-1,3.009231567E0,9.080429077E0
8.325594074E0,6.141815186E-1,3.033172607E0,9.152252197E0
8.337679035E0,6.285400391E-1,3.035568237E0,9.264785767E0
8.349763996E0,6.692504883E-1,3.049926758E0,9.379714966E0
8.361848957E0,6.764373779E-1,3.049926758E0,9.286331177E0
8.373933918E0,6.907958984E-1,3.035568237E0,9.204925537E0
8.386049397E0,7.123413086E-1,3.037963867E0,9.180984497E0
8.398134358E0,7.099456787E-1,3.023590088E0,9.190567017E0
8.410219318E0,7.003784180E-1,2.999649048E0,9.185775757E0
8.422304279E0,6.860046387E-1,2.997268677E0,9.171417236E0
8.434389240E0,6.716461182E-1,3.011627197E0,9.149871826E0
8.446474201E0,6.644592285E-1,3.033172607E0,9.159439087E0
8.458559162E0,6.405181885E-1,3.045150757E0,9.178588867E0
8.470674641E0,6.524810791E-1,3.047546387E0,9.161834717E0
8.482759602E0,7.003784180E-1,3.064300537E0,9.147476196E0
8.494844563E0,7.147369385E-1,3.078659058E0,9.137893677E0
8.506929524E0,7.219238281E-1,3.081054688E0,9.159439087E0
8.519014484E0,7.003784180E-1,3.083450317E0,9.130706787E0
8.531099445E0,6.884002686E-1,3.088241577E0,9.121139526E0
8.543214924E0,6.764373779E-1,3.097824097E0,9.130706787E0
8.555299885E0,6.692504883E-1,3.088241577E0,9.149871826E0
8.567384846E0,6.740417480E-1,3.102600098E0,9.173812866E0
8.579469807E0,6.836090088E-1,3.119369507E0,9.188171387E0
8.591554768E0,6.716461182E-1,3.128936768E0,9.185775757E0
8.603639729E0,6.548767090E-1,3.109786987E0,9.159439087E0
8.615724690E0,6.405181885E-1,3.109786987E0,9.116348267E0
8.627809650E0,6.237640381E-1,3.095428467E0,9.118743896E0
8.639925129E0,6.788177490E-1,3.112182617E0,9.142684937E0
8.652010090E0,7.267150879E-1,3.155273438E0,9.183380127E0
8.664095051E0,7.027587891E-1,3.148101807E0,9.207321167E0
8.676180012E0,6.620635986E-1,3.148101807E0,9.183380127E0
8.688264973E0,6.237640381E-1,3.133728027E0,9.121139526E0
8.700349934E0,6.333312988E-1,3.136123657E0,9.070861816E0
8.712434895E0,6.524810791E-1,3.148101807E0,9.101974487E0
8.724550373E0,6.548767090E-1,3.131332397E0,9.125915527E0
8.736635334E0,6.979827881E-1,3.107391357E0,9.037338257E0
8.748720295E0,7.290954590E-1,3.116973877E0,8.989456177E0
8.760805256E0,7.386779785E-1,3.188796997E0,9.209716797E0
8.772890217E0,6.333312988E-1,3.162460327E0,9.398864746E0
8.784975178E0,6.022033691E-1,3.100204468E0,9.286331177E0
8.797090656E0,6.812133789E-1,3.057113647E0,9.018188477E0
8.809175617E0,7.434692383E-1,3.057113647E0,8.845794678E0
8.821260578E0,7.362823486E-1,3.083450317E0,8.852981567E0
8.833345539E0,6.812133789E-1,3.143310547E0,8.965515137E0
8.845430500E0,6.237640381E-1,3.198379517E0,9.082824707E0
8.857515461E0,5.998229980E-1,3.229492188E0,9.185775757E0
8.869600422E0,6.069946289E-1,3.227111816E0,9.334213257E0
8.881715900E0,6.477050781E-1,3.203155518E0,9.441955566E0
8.893800861E0,7.147369385E-1,3.193588257E0,9.394073486E0
8.905885822E0,7.434692383E-1,3.162460327E0,9.209716797E0
8.917970783E0,7.338867188E-1,3.138519287E0,8.991851807E0
8.930055744E0,7.219238281E-1,3.148101807E0,8.927200317E0
8.942140705E0,6.955871582E-1,3.143310547E0,9.027755737E0
8.954225666E0,6.836090088E-1,3.145706177E0,9.161834717E0
8.966341145E0,6.548767090E-1,3.155273438E0,9.226486206E0
8.978426106E0,6.572723389E-1,3.164855957E0,9.204925537E0
8.990511066E0,6.501007080E-1,3.169647217E0,9.169021606E0
9.002596027E0,6.644592285E-1,3.167251587E0,9.133102417E0
9.014680988E0,6.764373779E-1,3.155273438E0,9.116348267E0
9.026765949E0,7.075500488E-1,3.157669067E0,9.092407227E0
9.038850910E0,7.027587891E-1,3.160064697E0,9.068466187E0
9.050966389E0,7.003784180E-1,3.179214478E0,9.092407227E0
9.063051350E0,6.884002686E-1,3.203155518E0,9.224090576E0
9.075136311E0,6.764373779E-1,3.195983887E0,9.224090576E0
9.087221272E0,6.860046387E-1,3.167251587E0,9.061279297E0
9.099306233E0,6.860046387E-1,3.152877808E0,8.951141357E0
9.111391193E0,6.812133789E-1,3.174438477E0,8.982269287E0
9.123476154E0,6.788177490E-1,3.195983887E0,9.006210327E0
9.135591633E0,6.477050781E-1,3.215133667E0,9.018188477E0
9.147676594E0,6.261444092E-1,3.229492188E0,9.099594116E0
9.159761555E0,6.309356689E-1,3.241470337E0,9.197753906E0
9.171846516E0,6.501007080E-1,3.229492188E0,9.245635986E0
9.183931477E0,6.716461182E-1,3.229492188E0,9.214508057E0
9.196016438E0,6.907958984E-1,3.222320557E0,9.154647827E0
9.208101399E0,7.147369385E-1,3.207946777E0,9.101974487E0
9.220216877E0,7.123413086E-1,3.198379517E0,9.125915527E0
9.232301838E0,6.979827881E-1,3.181610107E0,9.149871826E0
9.244386799E0,6.668548584E-1,3.160064697E0,9.106765747E0
9.256471760E0,6.405181885E-1,3.162460327E0,9.051696777E0
9.268556721E0,6.548767090E-1,3.188796997E0,9.068466187E0
9.280641682E0,6.548767090E-1,3.188796997E0,9.130706787E0
9.292726643E0,6.572723389E-1,3.191192627E0,9.154647827E0
9.304842121E0,6.788177490E-1,3.193588257E0,9.135498047E0
9.316927082E0,6.836090088E-1,3.200775146E0,9.130706787E0
9.329012043E0,6.979827881E-1,3.203155518E0,9.130706787E0
9.341097004E0,7.027587891E-1,3.212738037E0,9.118743896E0
9.353181965E0,6.836090088E-1,3.224716187E0,9.073257446E0
9.365266926E0,6.812133789E-1,3.224716187E0,9.106765747E0
9.377351887E0,6.764373779E-1,3.222320557E0,9.123535156E0
9.389467365E0,6.548767090E-1,3.222320557E0,9.118743896E0
9.401552326E0,6.524810791E-1,3.210342407E0,9.082824707E0
9.413637287E0,6.477050781E-1,3.200775146E0,9.063674927E0
9.425722248E0,6.644592285E-1,3.205551147E0,9.099594116E0
9.437807209E0,6.716461182E-1,3.227111816E0,9.157043457E0
9.449892170E0,6.668548584E-1,3.239074707E0,9.212112427E0
9.461977131E0,6.501007080E-1,3.246261597E0,9.212112427E0
9.474092609E0,6.285400391E-1,3.236679077E0,9.140289307E0
9.486177570E0,6.309356689E-1,3.217529297E0,9.063674927E0
9.498262531E0,6.285400391E-1,3.205551147E0,9.049301147E0
9.510347492E0,6.309356689E-1,3.188796997E0,9.109161377E0
9.522432453E0,6.405181885E-1,3.157669067E0,9.118743896E0
9.534517414E0,7.338867188E-1,3.155273438E0,8.994247437E0
9.546602375E0,7.698059082E-1,3.191192627E0,9.006210327E0
9.558717854E0,6.357269287E-1,3.169647217E0,9.255203247E0
9.570802815E0,5.639038086E-1,3.109786987E0,9.362945557E0
9.582887775E0,5.950317383E-1,3.066696167E0,9.195358276E0
9.594972736E0,6.812133789E-1,3.033172607E0,8.955932617E0
9.607057697E0,7.147369385E-1,3.054718018E0,8.829040527E0
9.619142658E0,6.836090088E-1,3.121765137E0,8.898468018E0
9.631227619E0,6.309356689E-1,3.174438477E0,9.087615967E0
9.643343098E0,5.926361084E-1,3.212738037E0,9.219299316E0
9.655428059E0,6.069946289E-1,3.198379517E0,9.291122437E0
9.667513020E0,6.237640381E-1,3.160064697E0,9.384490967E0
9.679597981E0,6.740417480E-1,3.119369507E0,9.427597046E0
9.691682941E0,7.123413086E-1,3.085845947E0,9.315063477E0
9.703767902E0,7.003784180E-1,3.037963867E0,9.111557007E0
9.715852863E0,6.860046387E-1,3.045150757E0,8.934387207E0
9.727968342E0,6.596679688E-1,3.030776978E0,8.951141357E0
9.740053303E0,6.405181885E-1,3.028381348E0,9.116348267E0
9.752138264E0,6.477050781E-1,3.035568237E0,9.293518066E0
9.764223225E0,6.501007080E-1,3.042755127E0,9.348587036E0
9.776308186E0,6.596679688E-1,3.023590088E0,9.300704956E0
9.788393147E0,6.764373779E-1,3.016418457E0,9.231262207E0
9.800478108E0,6.668548584E-1,2.997268677E0,9.173812866E0
9.812593586E0,6.836090088E-1,2.980499268E0,9.130706787E0
9.824678547E0,7.099456787E-1,2.975708008E0,9.078033447E0
9.836763508E0,6.979827881E-1,2.987686157E0,9.082824707E0
9.848848469E0,6.860046387E-1,2.994873047E0,9.214508057E0
9.860933430E0,6.764373779E-1,2.978103638E0,9.307876587E0
9.873018391E0,6.955871582E-1,2.932617188E0,9.219299316E0
9.885103352E0,7.099456787E-1,2.903884888E0,9.101974487E0
9.897218830E0,7.003784180E-1,2.894317627E0,9.034942627E0
9.909303791E0,6.453094482E-1,2.903884888E0,9.051696777E0
9.921388752E0,5.950317383E-1,2.915863037E0,9.111557007E0
9.933473713E0,6.069946289E-1,2.925430298E0,9.188171387E0
9.945558674E0,6.189727783E-1,2.935012817E0,9.267181396E0
9.957643635E0,6.764373779E-1,2.937408447E0,9.346191406E0
9.969728596E0,7.099456787E-1,2.911071777E0,9.374923706E0
9.981844074E0,7.314910889E-1,2.896697998E0,9.362945557E0
9.993929035E0,7.314910889E-1,2.848815918E0,9.327041626E0
1.000601400E1,7.219238281E-1,2.820083618E0,9.262390137E0
1.001809896E1,6.764373779E-1,2.788970947E0,9.226486206E0
1.003018392E1,6.453094482E-1,2.767425537E0,9.231262207E0
1.004226888E1,6.477050781E-1,2.757843018E0,9.231262207E0
1.005435384E1,6.716461182E-1,2.772201538E0,9.207321167E0
1.006646932E1,6.860046387E-1,2.774597168E0,9.204925537E0
1.007855428E1,6.907958984E-1,2.757843018E0,9.216903687E0
1.009063924E1,6.907958984E-1,2.721923828E0,9.248031616E0
1.010272420E1,7.027587891E-1,2.714752197E0,9.281539917E0
1.011480916E1,7.219238281E-1,2.705169678E0,9.281539917E0
1.012689412E1,7.243194580E-1,2.693191528E0,9.248031616E0
1.013897908E1,7.171325684E-1,2.664474487E0,9.180984497E0
1.015109456E1,6.955871582E-1,2.633346558E0,9.137893677E0
1.016317952E1,6.788177490E-1,2.626159668E0,9.195358276E0
1.017526448E1,6.788177490E-1,2.623764038E0,9.334213257E0
1.018734944E1,6.596679688E-1,2.626159668E0,9.475479126E0
1.019943441E1,6.381225586E-1,2.630950928E0,9.532943726E0
1.021151937E1,6.189727783E-1,2.618972778E0,9.461105347E0
1.022360433E1,6.524810791E-1,2.618972778E0,9.279144287E0
1.023571981E1,6.692504883E-1,2.609405518E0,9.176208496E0
1.024780477E1,6.764373779E-1,2.587860107E0,9.169021606E0
1.025988973E1,7.219238281E-1,2.535186768E0,9.324645996E0
1.027197469E1,8.033294678E-1,2.504058838E0,9.190567017E0
1.028405965E1,8.128967285E-1,2.494476318E0,9.104370117E0
1.029614461E1,7.051544189E-1,2.460952759E0,9.327041626E0
1.030822957E1,6.141815186E-1,2.403503418E0,9.595184326E0
1.032034505E1,5.998229980E-1,2.355621338E0,9.599975586E0
1.033243001E1,6.620635986E-1,2.372375488E0,9.317459106E0
1.034451497E1,7.075500488E-1,2.417861938E0,9.185775757E0
1.035659993E1,7.434692383E-1,2.477722168E0,9.212112427E0
1.036868490E1,7.123413086E-1,2.506454468E0,9.408432007E0
1.038076986E1,6.453094482E-1,2.472930908E0,9.523361206E0
1.039285482E1,6.117858887E-1,2.429840088E0,9.451538086E0
1.040497030E1,6.572723389E-1,2.389129639E0,9.331817627E0
1.041705526E1,7.027587891E-1,2.338851929E0,9.291122437E0
1.042914022E1,7.458648682E-1,2.286178589E0,9.305480957E0
1.044122518E1,7.482604980E-1,2.269424438E0,9.319854736E0
1.045331014E1,7.195281982E-1,2.233505249E0,9.353378296E0
1.046539510E1,6.740417480E-1,2.226333618E0,9.437164307E0
1.047748006E1,6.644592285E-1,2.226333618E0,9.544906616E0
1.048959554E1,6.812133789E-1,2.238296509E0,9.597579956E0
1.050168050E1,7.051544189E-1,2.257446289E0,9.547302246E0
1.051376546E1,7.219238281E-1,2.257446289E0,9.461105347E0
1.052585042E1,7.267150879E-1,2.250274658E0,9.394073486E0
1.053793538E1,7.243194580E-1,2.221542358E0,9.341400146E0
1.055002034E1,7.195281982E-1,2.216751099E0,9.305480957E0
1.056210531E1,7.290954590E-1,2.216751099E0,9.303100586E0
1.057422078E1,7.243194580E-1,2.221542358E0,9.427597046E0
1.058630574E1,7.051544189E-1,2.195205688E0,9.554489136E0
1.059839070E1,7.099456787E-1,2.159286499E0,9.482666016E0
1.061047567E1,7.506561279E-1,2.140136719E0,9.346191406E0
1.062256063E1,7.530517578E-1,2.132949829E0,9.362945557E0
1.063464559E1,7.099456787E-1,2.123382568E0,9.427597046E0
1.064673055E1,6.692504883E-1,2.123382568E0,9.398864746E0
1.065884603E1,6.453094482E-1,2.106613159E0,9.353378296E0
1.067093099E1,6.716461182E-1,2.116195679E0,9.353378296E0
1.068301595E1,7.171325684E-1,2.120986938E0,9.444351196E0
1.069510091E1,7.482604980E-1,2.111404419E0,9.554489136E0
1.070718587E1,7.482604980E-1,2.077880859E0,9.626312256E0
1.071927083E1,7.290954590E-1,2.037185669E0,9.592788696E0
1.073135579E1,7.123413086E-1,2.022827148E0,9.506607056E0
1.074347127E1,6.812133789E-1,2.001266479E0,9.468292236E0
1.075555623E1,6.668548584E-1,1.986907959E0,9.453933716E0
1.076764119E1,6.716461182E-1,1.974929810E0,9.441955566E0
1.077972615E1,6.884002686E-1,1.984512329E0,9.403656006E0
1.079181112E1,7.267150879E-1,1.989303589E0,9.389282227E0
1.080389608E1,7.147369385E-1,1.994094849E0,9.425201416E0
1.081598104E1,7.195281982E-1,1.972549438E0,9.444351196E0
1.082809652E1,7.027587891E-1,1.929443359E0,9.403656006E0
1.084018148E1,6.979827881E-1,1.905502319E0,9.365341187E0
1.085226644E1,7.171325684E-1,1.907897949E0,9.372528076E0
1.086435140E1,7.267150879E-1,1.924652100E0,9.446746826E0
1.087643636E1,7.219238281E-1,1.929443359E0,9.621520996E0
1.088852132E1,7.003784180E-1,1.922271729E0,9.793899536E0
1.090060628E1,6.596679688E-1,1.915084839E0,9.786727905E0
1.091272176E1,6.572723389E-1,1.917480469E0,9.530548096E0
1.092480672E1,6.596679688E-1,1.900711060E0,9.346191406E0
1.093689168E1,6.548767090E-1,1.881561279E0,9.355758667E0
1.094897664E1,7.195281982E-1,1.850433350E0,9.329437256E0
1.096106160E1,8.081054688E-1,1.845657349E0,9.106765747E0
1.097314656E1,8.057098389E-1,1.840866089E0,9.180984497E0
1.098523153E1,6.788177490E-1,1.769042969E0,9.674194336E0
1.099734700E1,6.117858887E-1,1.716369629E0,9.961502075E0
1.100943197E1,6.285400391E-1,1.706787109E0,9.779541016E0
1.102151693E1,6.692504883E-1,1.725936890E0,9.410827637E0
1.103360189E1,7.410736084E-1,1.792984009E0,9.274368286E0
1.104568685E1,7.530517578E-1,1.857620239E0,9.434768677E0
1.105777181E1,7.027587891E-1,1.876770020E0,9.647857666E0
1.106985677E1,6.572723389E-1,1.826492310E0,9.659835815E0
1.108197225E1,6.381225586E-1,1.764251709E0,9.528152466E0
1.109405721E1,6.668548584E-1,1.735519409E0,9.446746826E0
1.110614217E1,7.027587891E-1,1.711578369E0,9.470687866E0
1.111822713E1,7.267150879E-1,1.687637329E0,9.494628906E0
1.113031209E1,7.099456787E-1,1.670867920E0,9.461105347E0
1.114239705E1,7.051544189E-1,1.644531250E0,9.504211426E0
1.115448201E1,6.596679688E-1,1.630172729E0,9.576034546E0
1.116659749E1,6.716461182E-1,1.625381470E0,9.604766846E0
1.117868245E1,7.075500488E-1,1.622985840E0,9.537719727E0
1.119076741E1,7.290954590E-1,1.613418579E0,9.468292236E0
1.120285238E1,7.506561279E-1,1.603836060E0,9.473083496E0
1.121493734E1,7.458648682E-1,1.594253540E0,9.559280396E0
1.122702230E1,7.338867188E-1,1.582290649E0,9.621520996E0
1.123910726E1,7.099456787E-1,1.560745239E0,9.633499146E0
1.125122274E1,7.123413086E-1,1.570312500E0,9.693344116E0
1.126330770E1,7.099456787E-1,1.596649170E0,9.753204346E0
1.127539266E1,7.195281982E-1,1.594253540E0,9.755599976E0
1.128747762E1,7.267150879E-1,1.582290649E0,9.535324097E0
1.129956258E1,7.434692383E-1,1.596649170E0,9.329437256E0
1.131164754E1,7.147369385E-1,1.594253540E0,9.339004517E0
1.132373250E1,6.860046387E-1,1.575103760E0,9.346191406E0
1.133584798E1,6.716461182E-1,1.570312500E0,9.327041626E0
1.134793294E1,6.836090088E-1,1.575103760E0,9.446746826E0
1.136001790E1,7.123413086E-1,1.582290649E0,9.621520996E0
1.137210286E1,7.338867188E-1,1.570312500E0,9.784332275E0
1.138418782E1,7.434692383E-1,1.539199829E0,9.832214355E0
1.139627278E1,7.243194580E-1,1.508071899E0,9.767562866E0
1.140835775E1,6.955871582E-1,1.491302490E0,9.611938477E0
1.142047322E1,6.668548584E-1,1.457794189E0,9.494628906E0
1.143255819E1,6.381225586E-1,1.433853149E0,9.468292236E0
1.144464315E1,6.524810791E-1,1.409912109E0,9.487442017E0
1.145672811E1,7.099456787E-1,1.421875000E0,9.520965576E0
1.146881307E1,7.458648682E-1,1.438629150E0,9.537719727E0
1.148089803E1,7.386779785E-1,1.445816040E0,9.590393066E0
1.149298299E1,6.979827881E-1,1.429061890E0,9.640670776E0
1.150509847E1,6.596679688E-1,1.400329590E0,9.592788696E0
1.151718343E1,6.548767090E-1,1.397933960E0,9.494628906E0
1.152926839E1,7.051544189E-1,1.421875000E0,9.384490967E0
1.154135335E1,7.314910889E-1,1.448211670E0,9.403656006E0
1.155343831E1,7.314910889E-1,1.453002930E0,9.573638916E0
1.156552327E1,7.123413086E-1,1.438629150E0,9.738845825E0
1.157760823E1,6.548767090E-1,1.412292480E0,9.801086426E0
1.158972371E1,6.620635986E-1,1.417083740E0,9.781936646E0
1.160180867E1,6.620635986E-1,1.409912109E0,9.698135376E0
1.161389364E1,6.836090088E-1,1.405120850E0,9.535324097E0
1.162597860E1,7.817687988E-1,1.417083740E0,9.233657837E0
1.163806356E1,8.368377686E-1,1.426666260E0,9.195358276E0
1.165014852E1,7.338867188E-1,1.345260620E0,9.662231445E0
1.166226400E1,6.333312988E-1,1.278228760E0,9.959106445E0
1.167434896E1,6.309356689E-1,1.251892090E0,9.846572876E0
1.168643392E1,6.429138184E-1,1.259063721E0,9.499420166E0
1.169851888E1,6.979827881E-1,1.318923950E0,9.300704956E0
1.171060384E1,7.362823486E-1,1.395538330E0,9.456329346E0
1.172268880E1,7.195281982E-1,1.424270630E0,9.746017456E0
1.173477376E1,6.836090088E-1,1.381179810E0,9.798690796E0
1.174688924E1,6.572723389E-1,1.333297729E0,9.681381226E0
1.175897420E1,7.003784180E-1,1.306961060E0,9.602371216E0
1.177105916E1,7.362823486E-1,1.285400391E0,9.540115356E0
1.178314412E1,7.362823486E-1,1.266250610E0,9.506607056E0
1.179522908E1,7.147369385E-1,1.251892090E0,9.470687866E0
1.180731404E1,6.788177490E-1,1.223159790E0,9.489837646E0
1.181939901E1,6.572723389E-1,1.213577271E0,9.585617065E0
1.183148397E1,6.860046387E-1,1.218368530E0,9.683776855E0
1.184359944E1,7.171325684E-1,1.227951050E0,9.710113525E0
1.185568441E1,7.410736084E-1,1.244705200E0,9.678985596E0
1.186776937E1,7.458648682E-1,1.254287720E0,9.645462036E0
1.187985433E1,7.290954590E-1,1.251892090E0,9.595184326E0
1.189193929E1,7.027587891E-1,1.244705200E0,9.561660767E0
1.190402425E1,7.003784180E-1,1.251892090E0,9.530548096E0
1.191613973E1,7.099456787E-1,1.259063721E0,9.599975586E0
1.192822469E1,7.147369385E-1,1.268646240E0,9.724472046E0
1.194030965E1,7.410736084E-1,1.244705200E0,9.748413086E0
1.195239461E1,7.338867188E-1,1.208786011E0,9.643066406E0
1.196447957E1,7.506561279E-1,1.213577271E0,9.530548096E0
1.197656453E1,7.410736084E-1,1.225555420E0,9.576034546E0
1.198864949E1,7.075500488E-1,1.237518311E0,9.544906616E0
1.200076497E1,6.788177490E-1,1.235122681E0,9.497024536E0
1.201284993E1,6.764373779E-1,1.239913940E0,9.530548096E0
1.202493490E1,7.171325684E-1,1.271041870E0,9.635894775E0
1.203701986E1,7.410736084E-1,1.275833130E0,9.760391235E0
1.204910482E1,7.410736084E-1,1.242309570E0,9.743621826E0
1.206118978E1,7.003784180E-1,1.196823120E0,9.621520996E0
1.207327474E1,6.740417480E-1,1.165695190E0,9.465896606E0
1.208539022E1,6.501007080E-1,1.146545410E0,9.449142456E0
1.209747518E1,6.692504883E-1,1.141754150E0,9.561660767E0
1.210956014E1,6.716461182E-1,1.110626221E0,9.655044556E0
1.212164510E1,7.171325684E-1,1.093872070E0,9.678985596E0
1.213373006E1,7.650146484E-1,1.134567261E0,9.707717896E0
1.214581502E1,7.482604980E-1,1.148941040E0,9.729263306E0
1.215789998E1,6.907958984E-1,1.136962891E0,9.655044556E0
1.217001546E1,6.333312988E-1,1.115417480E0,9.537719727E0
1.218210042E1,6.381225586E-1,1.115417480E0,9.492233276E0
1.219418538E1,7.051544189E-1,1.120208740E0,9.473083496E0
1.220627034E1,7.482604980E-1,1.165695190E0,9.556884766E0
1.221835531E1,7.458648682E-1,1.201614380E0,9.707717896E0
1.223044027E1,6.860046387E-1,1.204010010E0,9.837005615E0
1.224252523E1,6.501007080E-1,1.201614380E0,9.779541016E0
1.225464070E1,6.381225586E-1,1.206405640E0,9.619125366E0
1.226672567E1,6.572723389E-1,1.213577271E0,9.592788696E0
1.227881063E1,6.812133789E-1,1.189636230E0,9.470687866E0
1.229089559E1,7.817687988E-1,1.208786011E0,9.252822876E0
1.230298055E1,8.488159180E-1,1.206405640E0,9.307876587E0
1.231506551E1,7.147369385E-1,1.127395630E0,9.805877686E0
1.232715047E1,6.022033691E-1,1.043594360E0,1.008360291E1
1.233926595E1,6.045989990E-1,1.026840210E0,1.000459290E1
1.235135091E1,6.548767090E-1,1.034011841E0,9.616729736E0
1.236343587E1,7.243194580E-1,1.141754150E0,9.401260376E0
1.237552083E1,7.482604980E-1,1.259063721E0,9.463500977E0
1.238760579E1,7.338867188E-1,1.285400391E0,9.631103516E0
1.239969075E1,7.075500488E-1,1.256683350E0,9.635894775E0
1.241177572E1,6.620635986E-1,1.204010010E0,9.564056396E0
1.242389119E1,6.764373779E-1,1.184844971E0,9.568847656E0
1.243597615E1,6.955871582E-1,1.163299561E0,9.576034546E0
1.244806112E1,6.907958984E-1,1.127395630E0,9.506607056E0
1.246014608E1,6.716461182E-1,1.098663330E0,9.492233276E0
1.247223104E1,6.524810791E-1,1.079498291E0,9.635894775E0
1.248431600E1,6.836090088E-1,1.062744141E0,9.777145386E0
1.249640096E1,7.123413086E-1,1.079498291E0,9.791503906E0
1.250851644E1,7.314910889E-1,1.101058960E0,9.705322266E0
1.252060140E1,7.434692383E-1,1.125000000E0,9.633499146E0
1.253268636E1,7.243194580E-1,1.141754150E0,9.580825806E0
1.254477132E1,6.955871582E-1,1.144149780E0,9.532943726E0
1.255685628E1,6.788177490E-1,1.144149780E0,9.525756836E0
1.256894124E1,6.955871582E-1,1.160903931E0,9.561660767E0
1.258102620E1,7.123413086E-1,1.163299561E0,9.695739746E0
1.259314168E1,7.243194580E-1,1.158508301E0,9.837005615E0
1.260522664E1,7.314910889E-1,1.146545410E0,9.872909546E0
1.261731160E1,7.219238281E-1,1.125000000E0,9.700531006E0
1.262939656E1,7.362823486E-1,1.127395630E0,9.439559937E0
1.264148153E1,7.338867188E-1,1.175277710E0,9.303100586E0
1.265356649E1,7.123413086E-1,1.184844971E0,9.341400146E0
1.266565145E1,7.003784180E-1,1.168090820E0,9.520965576E0
1.267776693E1,7.147369385E-1,1.172882080E0,9.712509155E0
1.268985189E1,7.290954590E-1,1.182449341E0,9.817840576E0
1.270193685E1,7.267150879E-1,1.180068970E0,9.863342285E0
1.271402181E1,7.123413086E-1,1.168090820E0,9.822631836E0
1.272610677E1,6.644592285E-1,1.153732300E0,9.688552856E0
1.273819173E1,6.333312988E-1,1.129791260E0,9.492233276E0
1.275027669E1,6.548767090E-1,1.120208740E0,9.382095337E0
1.276239217E1,6.644592285E-1,1.113021851E0,9.434768677E0
1.277447713E1,6.836090088E-1,1.101058960E0,9.559280396E0
1.278656209E1,7.530517578E-1,1.115417480E0,9.664611816E0
1.279864705E1,7.674102783E-1,1.146545410E0,9.719680786E0
1.281073201E1,7.195281982E-1,1.168090820E0,9.726867676E0
1.282281698E1,6.572723389E-1,1.180068970E0,9.700531006E0
1.283490194E1,6.261444092E-1,1.189636230E0,9.678985596E0
1.284701741E1,6.572723389E-1,1.204010010E0,9.626312256E0
1.285910238E1,6.907958984E-1,1.201614380E0,9.540115356E0
1.287118734E1,7.099456787E-1,1.215972900E0,9.446746826E0
1.288327230E1,7.123413086E-1,1.242309570E0,9.422805786E0
1.289535726E1,7.195281982E-1,1.263854980E0,9.451538086E0
1.290744222E1,7.027587891E-1,1.268646240E0,9.540115356E0
1.291952718E1,6.668548584E-1,1.287796021E0,9.662231445E0
1.293164266E1,6.501007080E-1,1.283020020E0,9.786727905E0
1.294372762E1,6.620635986E-1,1.299774170E0,9.880096436E0
1.295581258E1,6.788177490E-1,1.311737061E0,9.889678955E0
1.296789754E1,6.596679688E-1,1.326110840E0,9.837005615E0
1.297998250E1,6.453094482E-1,1.338073730E0,9.619125366E0
1.299206746E1,7.243194580E-1,1.373992920E0,9.259994507E0
1.300415242E1,8.057098389E-1,1.455398560E0,9.097198486E0
1.301626790E1,7.219238281E-1,1.443420410E0,9.458709717E0
1.302835286E1,6.141815186E-1,1.381179810E0,9.827423096E0
1.304043782E1,6.309356689E-1,1.359634399E0,9.839401245E0
1.305252278E1,6.979827881E-1,1.378784180E0,9.449142456E0
1.306460775E1,7.386779785E-1,1.438629150E0,9.130706787E0
1.307669271E1,7.434692383E-1,1.539199829E0,9.274368286E0
1.308877767E1,7.123413086E-1,1.603836060E0,9.690948486E0
1.310089315E1,6.644592285E-1,1.599044800E0,9.901641846E0
1.311297811E1,6.045989990E-1,1.558349609E0,9.815460205E0
1.312506307E1,6.141815186E-1,1.555953979E0,9.659835815E0
1.313714803E1,6.716461182E-1,1.560745239E0,9.559280396E0
1.314923299E1,7.075500488E-1,1.577499390E0,9.494628906E0
1.316131795E1,7.003784180E-1,1.594253540E0,9.403656006E0
1.317340291E1,6.572723389E-1,1.599044800E0,9.362945557E0
1.318551839E1,6.596679688E-1,1.625381470E0,9.429992676E0
1.319760335E1,6.979827881E-1,1.673263550E0,9.537719727E0
1.320968831E1,7.243194580E-1,1.692428589E0,9.599975586E0
1.322177327E1,7.267150879E-1,1.723541260E0,9.619125366E0
1.323385823E1,7.123413086E-1,1.740310669E0,9.607162476E0
1.324594320E1,7.003784180E-1,1.766647339E0,9.640670776E0
1.325802816E1,6.979827881E-1,1.788192749E0,9.640670776E0
1.327014364E1,6.836090088E-1,1.807342529E0,9.564056396E0
1.328222860E1,6.860046387E-1,1.843261719E0,9.451538086E0
1.329431356E1,6.884002686E-1,1.886352539E0,9.410827637E0
1.330639852E1,7.003784180E-1,1.929443359E0,9.480270386E0
1.331848348E1,7.123413086E-1,1.931838989E0,9.441955566E0
1.333056844E1,7.267150879E-1,1.924652100E0,9.334213257E0
1.334268392E1,7.290954590E-1,1.912689209E0,9.293518066E0
1.335476888E1,6.884002686E-1,1.924652100E0,9.331817627E0
1.336685384E1,6.596679688E-1,1.958175659E0,9.408432007E0
1.337893880E1,6.285400391E-1,1.984512329E0,9.482666016E0
1.339102376E1,6.261444092E-1,2.013244629E0,9.528152466E0
1.340310872E1,6.477050781E-1,2.051544189E0,9.542510986E0
1.341519368E1,6.907958984E-1,2.065917969E0,9.542510986E0
1.342730916E1,7.147369385E-1,2.068313599E0,9.530548096E0
1.343939412E1,7.003784180E-1,2.049163818E0,9.508987427E0
1.345147908E1,6.979827881E-1,2.061126709E0,9.437164307E0
1.346356404E1,6.884002686E-1,2.065917969E0,9.360549927E0
1.347564901E1,6.524810791E-1,2.063522339E0,9.365341187E0
1.348773397E1,6.429138184E-1,2.085067749E0,9.432373047E0
1.349981893E1,6.668548584E-1,2.120986938E0,9.489837646E0
1.351193441E1,6.884002686E-1,2.144927979E0,9.499420166E0
1.352401937E1,7.195281982E-1,2.176055908E0,9.456329346E0
1.353610433E1,7.051544189E-1,2.173660278E0,9.398864746E0
1.354818929E1,7.003784180E-1,2.185623169E0,9.353378296E0
1.356027425E1,6.788177490E-1,2.199996948E0,9.341400146E0
1.357235921E1,6.692504883E-1,2.216751099E0,9.365341187E0
1.358444417E1,6.788177490E-1,2.228729248E0,9.386886597E0
1.359655965E1,6.788177490E-1,2.247879028E0,9.391677856E0
1.360864461E1,6.668548584E-1,2.276611328E0,9.415618896E0
1.362072957E1,6.860046387E-1,2.290969849E0,9.456329346E0
1.363281453E1,6.788177490E-1,2.302947998E0,9.501815796E0
1.364489949E1,6.884002686E-1,2.317306519E0,9.499420166E0
1.365698446E1,6.644592285E-1,2.314910889E0,9.396469116E0
1.366906942E1,6.477050781E-1,2.307723999E0,9.283935547E0
1.368115438E1,6.524810791E-1,2.305343628E0,9.267181396E0
1.369326986E1,6.788177490E-1,2.324493408E0,9.341400146E0
1.370535482E1,7.003784180E-1,2.353225708E0,9.413223267E0
1.371743978E1,6.764373779E-1,2.372375488E0,9.441955566E0
1.372952474E1,6.501007080E-1,2.393920898E0,9.427597046E0
1.374160970E1,6.357269287E-1,2.405899048E0,9.358154297E0
1.375369466E1,6.620635986E-1,2.420257568E0,9.298309326E0
1.376577962E1,6.716461182E-1,2.422653198E0,9.343795776E0
1.377789510E1,6.644592285E-1,2.410675049E0,9.348587036E0
1.378998006E1,7.267150879E-1,2.410675049E0,9.200149536E0
1.380206502E1,8.081054688E-1,2.480117798E0,9.197753906E0
1.381414998E1,7.051544189E-1,2.470535278E0,9.461105347E0
1.382623494E1,6.093902588E-1,2.429840088E0,9.643066406E0
1.383831990E1,6.141815186E-1,2.408294678E0,9.513778687E0
1.385043538E1,7.027587891E-1,2.396316528E0,9.135498047E0
1.386252034E1,7.530517578E-1,2.417861938E0,8.845794678E0
1.387460531E1,7.362823486E-1,2.492080688E0,8.979873657E0
1.388669027E1,6.764373779E-1,2.566299438E0,9.396469116E0
1.389877523E1,5.926361084E-1,2.604614258E0,9.645462036E0
1.391086019E1,5.567169189E-1,2.618972778E0,9.631103516E0
1.392294515E1,6.045989990E-1,2.611801147E0,9.571243286E0
1.393506063E1,6.668548584E-1,2.575881958E0,9.532943726E0
1.394714559E1,7.123413086E-1,2.542358398E0,9.420410156E0
1.395923055E1,7.147369385E-1,2.539962769E0,9.219299316E0
1.397131551E1,7.051544189E-1,2.549545288E0,9.090011597E0
1.398340047E1,6.955871582E-1,2.561523438E0,9.142684937E0
1.399548543E1,6.884002686E-1,2.571090698E0,9.291122437E0
1.400757039E1,6.836090088E-1,2.580673218E0,9.389282227E0
1.401968587E1,6.836090088E-1,2.618972778E0,9.422805786E0
1.403177083E1,6.812133789E-1,2.640518188E0,9.396469116E0
1.404385579E1,6.788177490E-1,2.659683228E0,9.358154297E0
1.405594075E1,6.812133789E-1,2.662078857E0,9.298309326E0
1.406802572E1,6.788177490E-1,2.647705078E0,9.195358276E0
1.408011068E1,6.836090088E-1,2.654891968E0,9.145080566E0
1.409219564E1,7.051544189E-1,2.693191528E0,9.195358276E0
1.410431112E1,6.836090088E-1,2.717132568E0,9.394073486E0
1.411639608E1,6.764373779E-1,2.719528198E0,9.446746826E0
1.412848104E1,6.907958984E-1,2.719528198E0,9.286331177E0
1.414056600E1,6.860046387E-1,2.705169678E0,9.157043457E0
1.415265096E1,6.955871582E-1,2.714752197E0,9.118743896E0
1.416473592E1,6.812133789E-1,2.733901978E0,9.145080566E0
1.417682088E1,6.524810791E-1,2.755447388E0,9.173812866E0
1.418893636E1,6.333312988E-1,2.781784058E0,9.219299316E0
1.420102132E1,6.309356689E-1,2.805725098E0,9.303100586E0
1.421310628E1,6.477050781E-1,2.817703247E0,9.353378296E0
1.422519124E1,6.596679688E-1,2.812911987E0,9.372528076E0
1.423727620E1,6.716461182E-1,2.805725098E0,9.348587036E0
1.424936116E1,6.979827881E-1,2.800933838E0,9.334213257E0
1.426144612E1,6.979827881E-1,2.791366577E0,9.224090576E0
1.427356160E1,7.147369385E-1,2.786575317E0,9.209716797E0
1.428564656E1,6.907958984E-1,2.781784058E0,9.219299316E0
1.429773153E1,6.644592285E-1,2.760238647E0,9.224090576E0
1.430981649E1,6.620635986E-1,2.765029907E0,9.240844727E0
1.432190145E1,6.692504883E-1,2.798538208E0,9.288726807E0
1.433398641E1,6.644592285E-1,2.815307617E0,9.322250366E0
1.434607137E1,6.692504883E-1,2.834457397E0,9.238449097E0
1.435818685E1,6.788177490E-1,2.841644287E0,9.209716797E0
1.437027181E1,6.907958984E-1,2.846420288E0,9.180984497E0
1.438235677E1,7.099456787E-1,2.863189697E0,9.176208496E0
1.439444173E1,7.051544189E-1,2.860794067E0,9.178588867E0
1.440652669E1,7.099456787E-1,2.867980957E0,9.178588867E0
1.441861165E1,6.979827881E-1,2.877548218E0,9.200149536E0
1.443069661E1,6.812133789E-1,2.889526367E0,9.233657837E0
1.444278157E1,6.716461182E-1,2.891921997E0,9.250427246E0
1.445489705E1,6.692504883E-1,2.903884888E0,9.243240356E0
1.446698201E1,6.644592285E-1,2.908676147E0,9.250427246E0
1.447906698E1,6.812133789E-1,2.930221558E0,9.259994507E0
1.449115194E1,6.740417480E-1,2.920654297E0,9.262390137E0
1.450323690E1,6.884002686E-1,2.913467407E0,9.219299316E0
1.451532186E1,6.955871582E-1,2.913467407E0,9.169021606E0
1.452740682E1,6.788177490E-1,2.903884888E0,9.152252197E0
1.453952230E1,6.860046387E-1,2.911071777E0,9.171417236E0
1.455160726E1,6.979827881E-1,2.935012817E0,9.226486206E0
1.456369222E1,6.907958984E-1,2.951766968E0,9.279144287E0
1.457577718E1,6.548767090E-1,2.985290527E0,9.274368286E0
1.458786214E1,6.237640381E-1,2.982894897E0,9.214508057E0
1.459994710E1,6.117858887E-1,2.963745117E0,9.161834717E0
1.461206258E1,6.501007080E-1,2.985290527E0,9.145080566E0
1.462414754E1,6.788177490E-1,2.975708008E0,9.192962646E0
1.463623250E1,6.979827881E-1,2.954162598E0,9.109161377E0
1.464831746E1,7.554321289E-1,2.958953857E0,8.975082397E0
1.466040242E1,7.650146484E-1,3.018814087E0,9.164230347E0
1.467248738E1,6.572723389E-1,3.006835938E0,9.427597046E0
1.468457235E1,6.045989990E-1,2.951766968E0,9.420410156E0
1.469668782E1,6.572723389E-1,2.915863037E0,9.135498047E0
1.470877278E1,7.219238281E-1,2.906280518E0,8.864959717E0
1.472085775E1,7.290954590E-1,2.949371338E0,8.802703857E0
1.473294271E1,6.860046387E-1,3.011627197E0,8.994247437E0
1.474502767E1,5.998229980E-1,3.066696167E0,9.204925537E0
1.475711263E1,5.782623291E-1,3.102600098E0,9.312667847E0
1.476919759E1,5.950317383E-1,3.104995728E0,9.415618896E0
1.478131307E1,6.501007080E-1,3.081054688E0,9.497024536E0
1.479339803E1,7.195281982E-1,3.037963867E0,9.449142456E0
1.480548299E1,7.434692383E-1,3.016418457E0,9.243240356E0
1.481756795E1,7.338867188E-1,3.009231567E0,9.006210327E0
1.482965291E1,7.195281982E-1,3.014022827E0,8.939178467E0
1.484173787E1,6.907958984E-1,3.025985718E0,9.063674927E0
1.485382283E1,6.764373779E-1,3.028381348E0,9.200149536E0
1.486593831E1,6.572723389E-1,3.033172607E0,9.257598877E0
1.487802327E1,6.668548584E-1,3.049926758E0,9.240844727E0
1.489010823E1,6.477050781E-1,3.057113647E0,9.224090576E0
1.490219320E1,6.620635986E-1,3.059509277E0,9.200149536E0
1.491427816E1,6.620635986E-1,3.052322388E0,9.152252197E0
1.492636312E1,7.003784180E-1,3.054718018E0,9.101974487E0
1.493844808E1,7.123413086E-1,3.069091797E0,9.080429077E0
1.495056356E1,7.051544189E-1,3.085845947E0,9.142684937E0
1.496264852E1,6.907958984E-1,3.109786987E0,9.283935547E0
1.497473348E1,6.860046387E-1,3.104995728E0,9.245635986E0
1.498681844E1,6.955871582E-1,3.076263428E0,9.075637817E0
1.499890340E1,6.812133789E-1,3.059509277E0,8.994247437E0
1.501098836E1,6.884002686E-1,3.090637207E0,8.999023438E0
1.502307332E1,6.620635986E-1,3.107391357E0,9.027755737E0
1.503518880E1,6.381225586E-1,3.128936768E0,9.058883667E0
1.504727376E1,6.429138184E-1,3.150497437E0,9.152252197E0
1.505935872E1,6.429138184E-1,3.148101807E0,9.243240356E0
1.507144368E1,6.596679688E-1,3.150497437E0,9.271972656E0
1.508352865E1,6.788177490E-1,3.148101807E0,9.228866577E0
1.509561361E1,6.979827881E-1,3.145706177E0,9.173812866E0
1.510769857E1,7.027587891E-1,3.126541138E0,9.133102417E0
1.511981405E1,7.003784180E-1,3.109786987E0,9.142684937E0
1.513189901E1,6.812133789E-1,3.104995728E0,9.159439087E0
1.514398397E1,6.596679688E-1,3.090637207E0,9.152252197E0
1.515606893E1,6.429138184E-1,3.093032837E0,9.104370117E0
1.516815389E1,6.453094482E-1,3.095428467E0,9.094802856E0
1.518023885E1,6.548767090E-1,3.114578247E0,9.135498047E0
1.519232381E1,6.692504883E-1,3.131332397E0,9.161834717E0
1.520443929E1,6.884002686E-1,3.128936768E0,9.147476196E0
1.521652425E1,6.884002686E-1,3.128936768E0,9.109161377E0
1.522860921E1,7.099456787E-1,3.126541138E0,9.099594116E0
1.524069417E1,7.123413086E-1,3.138519287E0,9.111557007E0
1.525277913E1,6.979827881E-1,3.148101807E0,9.092407227E0
1.526486409E1,6.860046387E-1,3.152877808E0,9.140289307E0
1.527694906E1,6.644592285E-1,3.155273438E0,9.176208496E0
1.528906453E1,6.692504883E-1,3.155273438E0,9.204925537E0
1.530114949E1,6.596679688E-1,3.176834106E0,9.202529907E0
1.531323446E1,6.740417480E-1,3.172042847E0,9.142684937E0
1.532531942E1,6.716461182E-1,3.152877808E0,9.073257446E0
1.533740438E1,6.596679688E-1,3.145706177E0,9.030151367E0
1.534948934E1,6.812133789E-1,3.138519287E0,9.082824707E0
1.536157430E1,6.979827881E-1,3.157669067E0,9.147476196E0
1.537368978E1,7.123413086E-1,3.174438477E0,9.219299316E0
1.538577474E1,6.644592285E-1,3.162460327E0,9.236053467E0
1.539785970E1,6.285400391E-1,3.155273438E0,9.169021606E0
1.540994466E1,6.261444092E-1,3.140914917E0,9.099594116E0
1.542202962E1,6.429138184E-1,3.131332397E0,9.078033447E0
1.543411458E1,6.453094482E-1,3.131332397E0,9.145080566E0
1.544619954E1,6.764373779E-1,3.124160767E0,9.128311157E0
1.545831502E1,7.650146484E-1,3.114578247E0,8.958328247E0
1.547039998E1,7.889556885E-1,3.148101807E0,9.003814697E0
1.548248494E1,6.524810791E-1,3.148101807E0,9.307876587E0
1.549456990E1,5.734863281E-1,3.097824097E0,9.367736816E0
1.550665487E1,6.213684082E-1,3.040359497E0,9.152252197E0
1.551873983E1,7.075500488E-1,3.035568237E0,8.905654907E0
1.553082479E1,7.290954590E-1,3.064300537E0,8.802703857E0
1.554294027E1,6.955871582E-1,3.124160767E0,8.929595947E0
1.555502523E1,6.357269287E-1,3.181610107E0,9.142684937E0
1.556711019E1,6.141815186E-1,3.215133667E0,9.243240356E0
1.557919515E1,6.213684082E-1,3.203155518E0,9.298309326E0
1.559128011E1,6.596679688E-1,3.174438477E0,9.377319336E0
1.560336507E1,6.907958984E-1,3.143310547E0,9.394073486E0
1.561545003E1,7.243194580E-1,3.114578247E0,9.238449097E0
1.562756551E1,7.123413086E-1,3.095428467E0,9.001419067E0
1.563965047E1,6.907958984E-1,3.097824097E0,8.891296387E0
1.565173543E1,6.788177490E-1,3.097824097E0,8.996643066E0
1.566382039E1,6.572723389E-1,3.100204468E0,9.176208496E0
1.567590535E1,6.548767090E-1,3.107391357E0,9.269577026E0
1.568799032E1,6.644592285E-1,3.104995728E0,9.250427246E0
1.570010579E1,6.788177490E-1,3.119369507E0,9.214508057E0
1.571219075E1,6.620635986E-1,3.119369507E0,9.176208496E0
1.572427572E1,6.812133789E-1,3.112182617E0,9.135498047E0
1.573636068E1,7.123413086E-1,3.102600098E0,9.085220337E0
1.574844564E1,7.147369385E-1,3.112182617E0,9.056488037E0
1.576053060E1,7.147369385E-1,3.133728027E0,9.080429077E0
1.577261556E1,6.955871582E-1,3.160064697E0,9.248031616E0
1.578470052E1,6.836090088E-1,3.164855957E0,9.269577026E0
1.579681600E1,6.979827881E-1,3.133728027E0,9.101974487E0
1.580890096E1,7.051544189E-1,3.128936768E0,8.989456177E0
1.582098592E1,6.716461182E-1,3.128936768E0,8.994247437E0
1.583307088E1,6.333312988E-1,3.126541138E0,9.020584106E0
1.584515584E1,6.261444092E-1,3.160064697E0,9.046920776E0
1.585724080E1,6.429138184E-1,3.184005737E0,9.121139526E0
1.586932576E1,6.405181885E-1,3.191192627E0,9.233657837E0
1.588144124E1,6.572723389E-1,3.179214478E0,9.269577026E0
1.589352620E1,6.716461182E-1,3.176834106E0,9.216903687E0
1.590561116E1,6.955871582E-1,3.176834106E0,9.145080566E0
1.591769612E1,6.884002686E-1,3.160064697E0,9.097198486E0
1.592978109E1,6.836090088E-1,3.143310547E0,9.097198486E0
1.594186605E1,6.764373779E-1,3.119369507E0,9.135498047E0
1.595395101E1,6.668548584E-1,3.104995728E0,9.147476196E0
1.596606649E1,6.429138184E-1,3.093032837E0,9.121139526E0
1.597815145E1,6.596679688E-1,3.112182617E0,9.104370117E0
1.599023641E1,6.788177490E-1,3.128936768E0,9.135498047E0
1.600232137E1,6.907958984E-1,3.150497437E0,9.161834717E0
1.601440633E1,6.907958984E-1,3.157669067E0,9.135498047E0
1.602649129E1,7.027587891E-1,3.152877808E0,9.090011597E0
1.603860677E1,6.955871582E-1,3.157669067E0,9.066070557E0
1.605069173E1,7.099456787E-1,3.164855957E0,9.080429077E0
1.606277669E1,6.884002686E-1,3.174438477E0,9.111557007E0
1.607486165E1,6.716461182E-1,3.181610107E0,9.133102417E0
1.608694661E1,6.620635986E-1,3.193588257E0,9.152252197E0
1.609903157E1,6.572723389E-1,3.203155518E0,9.137893677E0
1.611111654E1,6.501007080E-1,3.172042847E0,9.104370117E0
1.612323201E1,6.501007080E-1,3.169647217E0,9.078033447E0
1.613531698E1,6.716461182E-1,3.164855957E0,9.104370117E0
1.614740194E1,6.764373779E-1,3.191192627E0,9.171417236E0
1.615948690E1,6.955871582E-1,3.215133667E0,9.219299316E0
1.617157186E1,6.644592285E-1,3.210342407E0,9.202529907E0
1.618365682E1,6.261444092E-1,3.195983887E0,9.111557007E0
1.619574178E1,6.261444092E-1,3.191192627E0,9.063674927E0
1.620782674E1,6.069946289E-1,3.179214478E0,9.090011597E0
1.621994222E1,6.405181885E-1,3.184005737E0,9.125915527E0
1.623202718E1,7.123413086E-1,3.188796997E0,9.070861816E0
1.624411214E1,7.745971680E-1,3.155273438E0,9.013397217E0
1.625619710E1,7.674102783E-1,3.184005737E0,9.044525146E0
1.626828206E1,6.261444092E-1,3.174438477E0,9.312667847E0
1.628036702E1,5.639038086E-1,3.143310547E0,9.303100586E0
1.629245198E1,6.429138184E-1,3.107391357E0,9.070861816E0
1.630456746E1,7.099456787E-1,3.078659058E0,8.855377197E0
1.631665242E1,7.267150879E-1,3.104995728E0,8.800308228E0
1.632873738E1,6.836090088E-1,3.172042847E0,8.939178467E0
1.634082235E1,6.333312988E-1,3.229492188E0,9.142684937E0
1.635290731E1,6.069946289E-1,3.255828857E0,9.228866577E0
1.636499227E1,6.141815186E-1,3.255828857E0,9.279144287E0
1.637707723E1,6.620635986E-1,3.239074707E0,9.343795776E0
1.638919271E1,6.907958984E-1,3.219924927E0,9.343795776E0
1.640127767E1,7.171325684E-1,3.193588257E0,9.192962646E0
1.641336263E1,7.027587891E-1,3.172042847E0,8.991851807E0
1.642544759E1,6.812133789E-1,3.172042847E0,8.905654907E0
1.643753255E1,6.596679688E-1,3.181610107E0,9.006210327E0
1.644961751E1,6.548767090E-1,3.179214478E0,9.178588867E0
1.646173299E1,6.644592285E-1,3.191192627E0,9.250427246E0
1.647381795E1,6.572723389E-1,3.193588257E0,9.226486206E0
1.648590291E1,6.644592285E-1,3.176834106E0,9.171417236E0
1.649798787E1,6.716461182E-1,3.184005737E0,9.135498047E0
1.651007283E1,6.788177490E-1,3.169647217E0,9.106765747E0
1.652215780E1,6.907958984E-1,3.169647217E0,9.075637817E0
1.653424276E1,7.099456787E-1,3.162460327E0,9.054092407E0
1.654635823E1,7.027587891E-1,3.184005737E0,9.090011597E0
1.655844320E1,6.884002686E-1,3.222320557E0,9.240844727E0
1.657052816E1,6.788177490E-1,3.200775146E0,9.219299316E0
1.658261312E1,6.884002686E-1,3.181610107E0,9.049301147E0
1.659469808E1,6.884002686E-1,3.188796997E0,8.994247437E0
1.660678304E1,6.572723389E-1,3.191192627E0,8.994247437E0
1.661886800E1,6.213684082E-1,3.207946777E0,8.994247437E0
1.663098348E1,6.189727783E-1,3.217529297E0,9.011001587E0
1.664306844E1,6.189727783E-1,3.241470337E0,9.099594116E0
1.665515340E1,6.501007080E-1,3.234283447E0,9.207321167E0
1.666723836E1,6.740417480E-1,3.231887817E0,9.257598877E0
1.667932332E1,6.788177490E-1,3.229492188E0,9.204925537E0
1.669140828E1,6.907958984E-1,3.210342407E0,9.125915527E0
1.670349324E1,6.955871582E-1,3.195983887E0,9.094802856E0
1.671560872E1,6.860046387E-1,3.181610107E0,9.109161377E0
1.672769368E1,6.668548584E-1,3.152877808E0,9.140289307E0
1.673977864E1,6.309356689E-1,3.140914917E0,9.140289307E0
1.675186361E1,6.237640381E-1,3.140914917E0,9.109161377E0
1.676394857E1,6.429138184E-1,3.148101807E0,9.090011597E0
1.677603353E1,6.668548584E-1,3.169647217E0,9.123535156E0
1.678811849E1,6.812133789E-1,3.167251587E0,9.173812866E0
1.680023397E1,6.812133789E-1,3.157669067E0,9.164230347E0
1.681231893E1,6.860046387E-1,3.152877808E0,9.104370117E0
1.682440389E1,6.907958984E-1,3.152877808E0,9.056488037E0
1.683648885E1,6.860046387E-1,3.162460327E0,9.058883667E0
1.684857381E1,6.836090088E-1,3.155273438E0,9.121139526E0
1.686065877E1,6.740417480E-1,3.169647217E0,9.178588867E0
1.687274373E1,6.572723389E-1,3.164855957E0,9.178588867E0
1.688485921E1,6.381225586E-1,3.140914917E0,9.118743896E0
1.689694417E1,6.285400391E-1,3.107391357E0,9.094802856E0
1.690902913E1,6.548767090E-1,3.124160767E0,9.111557007E0
1.692111409E1,6.836090088E-1,3.140914917E0,9.154647827E0
1.693319906E1,6.955871582E-1,3.133728027E0,9.219299316E0
1.694528402E1,6.692504883E-1,3.119369507E0,9.226486206E0
1.695736898E1,6.333312988E-1,3.107391357E0,9.188171387E0
1.696948446E1,6.189727783E-1,3.097824097E0,9.137893677E0
1.698156942E1,6.237640381E-1,3.088241577E0,9.152252197E0
1.699365438E1,6.189727783E-1,3.049926758E0,9.202529907E0
1.700573934E1,6.644592285E-1,3.011627197E0,9.159439087E0
1.701782430E1,7.793731689E-1,3.014022827E0,8.951141357E0
1.702990926E1,7.698059082E-1,3.030776978E0,8.967910767E0
1.704199422E1,6.405181885E-1,2.980499268E0,9.207321167E0
1.705410970E1,5.806579590E-1,2.915863037E0,9.341400146E0
1.706619466E1,6.189727783E-1,2.882339478E0,9.269577026E0
1.707827962E1,6.692504883E-1,2.882339478E0,9.039733887E0
1.709036458E1,7.195281982E-1,2.937408447E0,8.915237427E0
1.710244954E1,6.979827881E-1,2.999649048E0,9.049301147E0
1.711453450E1,6.429138184E-1,3.035568237E0,9.271972656E0
1.712661946E1,6.022033691E-1,3.014022827E0,9.358154297E0
1.713873494E1,5.830535889E-1,2.990081787E0,9.324645996E0
1.715081990E1,6.405181885E-1,2.944595337E0,9.322250366E0
1.716290486E1,6.884002686E-1,2.901489258E0,9.350982666E0
1.717498983E1,7.099456787E-1,2.875152588E0,9.288726807E0
1.718707479E1,7.123413086E-1,2.853607178E0,9.149871826E0
1.719915540E1,6.907958984E-1,2.832061768E0,9.046920776E0
1.721124036E1,6.644592285E-1,2.829666138E0,9.118743896E0
1.722335584E1,6.620635986E-1,2.839248657E0,9.288726807E0
1.723544080E1,6.788177490E-1,2.827270508E0,9.408432007E0
1.724752576E1,6.740417480E-1,2.844039917E0,9.315063477E0
1.725961072E1,6.979827881E-1,2.834457397E0,9.293518066E0
1.727169568E1,6.860046387E-1,2.820083618E0,9.245635986E0
1.728378064E1,6.955871582E-1,2.791366577E0,9.212112427E0
1.729586560E1,7.051544189E-1,2.769805908E0,9.173812866E0
1.730798108E1,7.099456787E-1,2.767425537E0,9.164230347E0
1.732006604E1,7.003784180E-1,2.776992798E0,9.286331177E0
1.733215100E1,6.979827881E-1,2.776992798E0,9.432373047E0
1.734423596E1,6.884002686E-1,2.748260498E0,9.295913696E0
1.735632092E1,7.123413086E-1,2.717132568E0,9.188171387E0
1.736840588E1,7.123413086E-1,2.705169678E0,9.135498047E0
1.738052136E1,6.884002686E-1,2.702774048E0,9.176208496E0
1.739260632E1,6.309356689E-1,2.695587158E0,9.188171387E0
1.740469128E1,6.117858887E-1,2.688415527E0,9.178588867E0
1.741677624E1,6.261444092E-1,2.705169678E0,9.212112427E0
1.742886121E1,6.596679688E-1,2.705169678E0,9.305480957E0
1.744094617E1,7.099456787E-1,2.690811157E0,9.422805786E0
1.745303113E1,7.386779785E-1,2.671646118E0,9.475479126E0
1.746514661E1,7.386779785E-1,2.645309448E0,9.477874756E0
1.747723157E1,7.195281982E-1,2.628555298E0,9.432373047E0
1.748931653E1,6.860046387E-1,2.604614258E0,9.353378296E0
1.750140149E1,6.692504883E-1,2.563903809E0,9.281539917E0
1.751348645E1,6.668548584E-1,2.554336548E0,9.231262207E0
1.752557141E1,6.692504883E-1,2.539962769E0,9.224090576E0
1.753765637E1,7.003784180E-1,2.542358398E0,9.236053467E0
1.754974133E1,7.075500488E-1,2.537567139E0,9.279144287E0
1.756185681E1,7.147369385E-1,2.535186768E0,9.331817627E0
1.757394177E1,6.764373779E-1,2.496871948E0,9.353378296E0
1.758602673E1,6.884002686E-1,2.482513428E0,9.377319336E0
1.759811169E1,6.884002686E-1,2.472930908E0,9.353378296E0
1.761019666E1,6.979827881E-1,2.463348389E0,9.279144287E0
1.762228162E1,6.907958984E-1,2.437011719E0,9.219299316E0
1.763436658E1,6.907958984E-1,2.439407349E0,9.224090576E0
1.764648206E1,6.884002686E-1,2.429840088E0,9.329437256E0
1.765856702E1,6.692504883E-1,2.427444458E0,9.468292236E0
1.767065198E1,6.381225586E-1,2.429840088E0,9.561660767E0
1.768273694E1,6.189727783E-1,2.410675049E0,9.499420166E0
1.769482190E1,6.644592285E-1,2.401107788E0,9.377319336E0
1.770690686E1,6.812133789E-1,2.391525269E0,9.341400146E0
1.771899182E1,6.716461182E-1,2.360397339E0,9.384490967E0
1.773110730E1,7.362823486E-1,2.314910889E0,9.283935547E0
1.774319226E1,8.368377686E-1,2.298156738E0,9.039733887E0
1.775527722E1,7.817687988E-1,2.267028809E0,9.135498047E0
1.776736218E1,6.548767090E-1,2.216751099E0,9.518569946E0
1.777944714E1,6.022033691E-1,2.173660278E0,9.760391235E0
1.779153210E1,6.357269287E-1,2.161682129E0,9.614334106E0
1.780361706E1,6.884002686E-1,2.188018799E0,9.305480957E0
1.781573254E1,7.314910889E-1,2.250274658E0,9.209716797E0
1.782781751E1,7.386779785E-1,2.298156738E0,9.384490967E0
1.783990246E1,6.836090088E-1,2.300552368E0,9.566452026E0
1.785198743E1,6.405181885E-1,2.255065918E0,9.544906616E0
1.786407239E1,6.501007080E-1,2.207168579E0,9.413223267E0
1.787615735E1,6.907958984E-1,2.168869019E0,9.343795776E0
1.788824231E1,7.267150879E-1,2.116195679E0,9.355758667E0
1.790035779E1,7.362823486E-1,2.092254639E0,9.372528076E0
1.791244275E1,7.147369385E-1,2.065917969E0,9.372528076E0
1.792452771E1,6.596679688E-1,2.049163818E0,9.463500977E0
1.793661267E1,6.381225586E-1,2.061126709E0,9.602371216E0
1.794869763E1,6.501007080E-1,2.065917969E0,9.690948486E0
1.796078259E1,6.884002686E-1,2.085067749E0,9.631103516E0
1.797289807E1,7.219238281E-1,2.085067749E0,9.473083496E0
1.798498303E1,7.219238281E-1,2.068313599E0,9.339004517E0
1.799706799E1,7.099456787E-1,2.044372559E0,9.274368286E0
1.800915295E1,7.027587891E-1,2.027603149E0,9.264785767E0
1.802123792E1,6.955871582E-1,2.006057739E0,9.317459106E0
1.803332288E1,7.027587891E-1,2.013244629E0,9.463500977E0
1.804540784E1,7.195281982E-1,2.029998779E0,9.714889526E0
1.805752332E1,6.884002686E-1,2.001266479E0,9.762786865E0
1.806960828E1,6.907958984E-1,1.974929810E0,9.525756836E0
1.808169324E1,7.003784180E-1,1.977325439E0,9.353378296E0
1.809377820E1,6.907958984E-1,1.972549438E0,9.365341187E0
1.810586316E1,6.764373779E-1,1.974929810E0,9.367736816E0
1.811794812E1,6.524810791E-1,1.970153809E0,9.329437256E0
1.813003308E1,6.357269287E-1,1.967758179E0,9.331817627E0
1.814214856E1,6.764373779E-1,1.965362549E0,9.418014526E0
1.815423352E1,7.147369385E-1,1.943817139E0,9.554489136E0
1.816631848E1,7.314910889E-1,1.922271729E0,9.650253296E0
1.817840344E1,7.243194580E-1,1.888748169E0,9.655044556E0
1.819048840E1,6.860046387E-1,1.862411499E0,9.595184326E0
1.820257336E1,6.644592285E-1,1.836074829E0,9.525756836E0
1.821465833E1,6.285400391E-1,1.797760010E0,9.497024536E0
1.822677380E1,6.405181885E-1,1.792984009E0,9.456329346E0
1.823885876E1,6.668548584E-1,1.797760010E0,9.444351196E0
1.825094373E1,7.051544189E-1,1.819320679E0,9.494628906E0
1.826302869E1,7.267150879E-1,1.821701050E0,9.583221436E0
1.827511365E1,7.195281982E-1,1.812133789E0,9.592788696E0
1.828719861E1,6.955871582E-1,1.785797119E0,9.444351196E0
1.829928357E1,6.812133789E-1,1.745086670E0,9.303100586E0
1.831139905E1,6.788177490E-1,1.730728149E0,9.250427246E0
1.832348401E1,7.267150879E-1,1.737915039E0,9.291122437E0
1.833556897E1,7.434692383E-1,1.761856079E0,9.444351196E0
1.834765393E1,7.147369385E-1,1.737915039E0,9.769958496E0
1.835973889E1,6.692504883E-1,1.728332520E0,9.870513916E0
1.837182385E1,6.237640381E-1,1.701995850E0,9.817840576E0
1.838390881E1,6.405181885E-1,1.711578369E0,9.669403076E0
1.839602429E1,6.453094482E-1,1.709182739E0,9.564056396E0
1.840810925E1,6.644592285E-1,1.713973999E0,9.449142456E0
1.842019421E1,7.722015381E-1,1.713973999E0,9.202529907E0
1.843227917E1,8.392333984E-1,1.699600220E0,9.070861816E0
1.844436414E1,7.338867188E-1,1.642135620E0,9.463500977E0
1.845644910E1,6.333312988E-1,1.582290649E0,9.853759766E0
1.846853406E1,6.189727783E-1,1.551162720E0,9.791503906E0
1.848064954E1,6.501007080E-1,1.543975830E0,9.456329346E0
1.849273450E1,6.836090088E-1,1.558349609E0,9.190567017E0
1.850481946E1,7.243194580E-1,1.596649170E0,9.283935547E0
1.851690442E1,7.267150879E-1,1.642135620E0,9.626312256E0
1.852898938E1,6.812133789E-1,1.632568359E0,9.884887695E0
1.854107434E1,6.165771484E-1,1.582290649E0,9.932769775E0
1.855315930E1,6.022033691E-1,1.539199829E0,9.825027466E0
1.856527478E1,6.309356689E-1,1.524826050E0,9.635894775E0
1.857735974E1,6.692504883E-1,1.517639160E0,9.418014526E0
1.858944470E1,6.788177490E-1,1.510467529E0,9.219299316E0
1.860152966E1,6.812133789E-1,1.500885010E0,9.135498047E0
1.861361462E1,6.501007080E-1,1.491302490E0,9.245635986E0
1.862569958E1,6.453094482E-1,1.469757080E0,9.525756836E0
1.863778455E1,6.644592285E-1,1.472152710E0,9.810668945E0
1.864990002E1,6.955871582E-1,1.479339600E0,9.875305176E0
1.866198498E1,6.884002686E-1,1.467361450E0,9.746017456E0
1.867406995E1,7.003784180E-1,1.453002930E0,9.587997437E0
1.868615491E1,6.788177490E-1,1.450607300E0,9.482666016E0
1.869823987E1,6.812133789E-1,1.455398560E0,9.468292236E0
1.871032483E1,6.812133789E-1,1.460189819E0,9.499420166E0
1.872240979E1,6.860046387E-1,1.460189819E0,9.592788696E0
1.873452527E1,6.836090088E-1,1.453002930E0,9.683776855E0
1.874661023E1,6.955871582E-1,1.421875000E0,9.595184326E0
1.875869519E1,7.171325684E-1,1.405120850E0,9.434768677E0
1.877078015E1,7.123413086E-1,1.424270630E0,9.513778687E0
1.878286511E1,6.860046387E-1,1.421875000E0,9.640670776E0
1.879495007E1,6.429138184E-1,1.419479370E0,9.537719727E0
1.880703503E1,6.237640381E-1,1.417083740E0,9.468292236E0
1.881915051E1,6.548767090E-1,1.431457520E0,9.528152466E0
1.883123547E1,6.860046387E-1,1.441024780E0,9.590393066E0
1.884332043E1,7.099456787E-1,1.421875000E0,9.640670776E0
1.885540540E1,7.338867188E-1,1.393142700E0,9.650253296E0
1.886749036E1,7.075500488E-1,1.354843140E0,9.623916626E0
1.887957532E1,6.596679688E-1,1.328506470E0,9.540115356E0
1.889166028E1,6.357269287E-1,1.294982910E0,9.482666016E0
1.890377576E1,6.261444092E-1,1.254287720E0,9.504211426E0
1.891586072E1,6.596679688E-1,1.249496460E0,9.580825806E0
1.892794568E1,7.027587891E-1,1.263854980E0,9.640670776E0
1.894003064E1,7.267150879E-1,1.275833130E0,9.705322266E0
1.895211560E1,7.243194580E-1,1.290191650E0,9.757995605E0
1.896420056E1,6.764373779E-1,1.290191650E0,9.671798706E0
1.897628552E1,6.285400391E-1,1.271041870E0,9.508987427E0
1.898840100E1,6.501007080E-1,1.285400391E0,9.377319336E0
1.900048596E1,7.075500488E-1,1.318923950E0,9.358154297E0
1.901257092E1,7.386779785E-1,1.335678101E0,9.485046387E0
1.902465588E1,7.099456787E-1,1.338073730E0,9.678985596E0
1.903674084E1,6.692504883E-1,1.323715210E0,9.741226196E0
1.904882580E1,6.453094482E-1,1.314132690E0,9.659835815E0
1.906094128E1,6.572723389E-1,1.299774170E0,9.597579956E0
1.907302624E1,6.572723389E-1,1.285400391E0,9.587997437E0
1.908511121E1,7.027587891E-1,1.283020020E0,9.468292236E0
1.909719617E1,8.057098389E-1,1.287796021E0,9.259994507E0
1.910928113E1,8.152923584E-1,1.268646240E0,9.487442017E0
1.912136609E1,6.764373779E-1,1.206405640E0,9.956710815E0
1.913345105E1,6.022033691E-1,1.156112671E0,1.001177979E1
1.914553601E1,6.309356689E-1,1.141754150E0,9.657440186E0
1.915765149E1,6.764373779E-1,1.163299561E0,9.252822876E0
1.916973645E1,7.314910889E-1,1.251892090E0,9.195358276E0
1.918182141E1,7.745971680E-1,1.328506470E0,9.516174316E0
1.919390637E1,7.434692383E-1,1.330902100E0,9.726867676E0
1.920599133E1,6.572723389E-1,1.256683350E0,9.681381226E0
1.921807629E1,6.213684082E-1,1.204010010E0,9.638275146E0
1.923016126E1,6.764373779E-1,1.213577271E0,9.671798706E0
1.924227673E1,7.458648682E-1,1.213577271E0,9.667007446E0
1.925436169E1,7.219238281E-1,1.196823120E0,9.540115356E0
1.926644666E1,6.788177490E-1,1.175277710E0,9.463500977E0
1.927853162E1,6.477050781E-1,1.175277710E0,9.516174316E0
1.929061658E1,6.620635986E-1,1.182449341E0,9.614334106E0
1.930270154E1,6.860046387E-1,1.187240601E0,9.609558105E0
1.931478650E1,7.338867188E-1,1.192031860E0,9.573638916E0
1.932690198E1,7.578277588E-1,1.206405640E0,9.597579956E0
1.933898694E1,7.769927979E-1,1.199218750E0,9.616729736E0
1.935107190E1,7.458648682E-1,1.187240601E0,9.552093506E0
1.936315686E1,6.907958984E-1,1.151336670E0,9.499420166E0
1.937524182E1,6.692504883E-1,1.158508301E0,9.511383057E0
1.938732678E1,6.788177490E-1,1.189636230E0,9.695739746E0
1.939944226E1,7.123413086E-1,1.172882080E0,9.904037476E0
1.941152722E1,7.338867188E-1,1.141754150E0,9.892074585E0
1.942361218E1,7.338867188E-1,1.117813110E0,9.688552856E0
1.943569714E1,7.506561279E-1,1.151336670E0,9.475479126E0
1.944778210E1,7.362823486E-1,1.175277710E0,9.367736816E0
1.945986706E1,6.979827881E-1,1.180068970E0,9.283935547E0
1.947195203E1,6.716461182E-1,1.182449341E0,9.386886597E0
1.948403699E1,6.907958984E-1,1.187240601E0,9.568847656E0
1.949615246E1,7.147369385E-1,1.199218750E0,9.698135376E0
1.950823743E1,7.219238281E-1,1.158508301E0,9.736450195E0
1.952032239E1,7.027587891E-1,1.129791260E0,9.762786865E0
1.953240735E1,6.860046387E-1,1.098663330E0,9.743621826E0
1.954449231E1,6.501007080E-1,1.084289551E0,9.633499146E0
1.955657727E1,6.501007080E-1,1.081893921E0,9.504211426E0
1.956866223E1,6.548767090E-1,1.065139771E0,9.523361206E0
1.958077771E1,6.884002686E-1,1.055557251E0,9.580825806E0
1.959286267E1,7.410736084E-1,1.069931030E0,9.580825806E0
1.960494763E1,7.602233887E-1,1.079498291E0,9.604766846E0
1.961703259E1,7.362823486E-1,1.103454590E0,9.662231445E0
1.962911755E1,6.764373779E-1,1.101058960E0,9.669403076E0
1.964120251E1,6.501007080E-1,1.072326660E0,9.561660767E0
1.965331799E1,6.429138184E-1,1.050781250E0,9.420410156E0
1.966540295E1,6.668548584E-1,1.055557251E0,9.374923706E0
1.967748792E1,7.482604980E-1,1.084289551E0,9.425201416E0
1.968957288E1,8.033294678E-1,1.113021851E0,9.559280396E0
1.970165784E1,7.578277588E-1,1.127395630E0,9.779541016E0
1.971374280E1,6.788177490E-1,1.117813110E0,9.951919556E0
1.972582776E1,6.285400391E-1,1.125000000E0,9.927978516E0
1.973794324E1,6.453094482E-1,1.134567261E0,9.760391235E0
1.975002820E1,6.812133789E-1,1.134567261E0,9.607162476E0
1.976211316E1,7.027587891E-1,1.129791260E0,9.413223267E0
1.977419812E1,7.578277588E-1,1.132171631E0,9.195358276E0
1.978628308E1,8.631744385E-1,1.165695190E0,9.133102417E0
1.979836804E1,7.674102783E-1,1.117813110E0,9.559280396E0
1.981045300E1,6.237640381E-1,1.041198730E0,9.947128296E0
1.982256848E1,5.926361084E-1,9.861297607E-1,9.992630005E0
1.983465344E1,6.764373779E-1,9.789428711E-1,9.667007446E0
1.984673840E1,7.530517578E-1,1.041198730E0,9.358154297E0
1.985882336E1,8.009338379E-1,1.156112671E0,9.429992676E0
1.987090833E1,8.081054688E-1,1.215972900E0,9.722076416E0
1.988299329E1,7.458648682E-1,1.187240601E0,9.839401245E0
1.989507825E1,6.501007080E-1,1.129791260E0,9.724472046E0
1.990719373E1,6.213684082E-1,1.125000000E0,9.619125366E0
1.991927869E1,6.501007080E-1,1.125000000E0,9.475479126E0
1.993136365E1,6.764373779E-1,1.110626221E0,9.322250366E0
1.994344861E1,6.860046387E-1,1.089080811E0,9.303100586E0
1.995553357E1,6.836090088E-1,1.081893921E0,9.470687866E0
1.996761853E1,6.955871582E-1,1.060348511E0,9.674194336E0
1.997970349E1,7.195281982E-1,1.072326660E0,9.829818726E0
1.999181897E1,7.410736084E-1,1.091476440E0,9.846572876E0
2.000390393E1,7.482604980E-1,1.122604370E0,9.789123535E0
2.001598889E1,7.195281982E-1,1.151336670E0,9.688552856E0
2.002807385E1,7.027587891E-1,1.168090820E0,9.590393066E0
2.004015881E1,6.764373779E-1,1.182449341E0,9.518569946E0
2.005224377E1,6.860046387E-1,1.208786011E0,9.446746826E0
2.006435925E1,7.051544189E-1,1.237518311E0,9.465896606E0
2.007644421E1,7.123413086E-1,1.273437500E0,9.688552856E0
2.008852917E1,7.219238281E-1,1.290191650E0,9.880096436E0
2.010061414E1,7.147369385E-1,1.285400391E0,9.757995605E0
2.011269910E1,7.219238281E-1,1.283020020E0,9.487442017E0
2.012478406E1,7.554321289E-1,1.316528320E0,9.295913696E0
2.013686902E1,7.434692383E-1,1.350051880E0,9.271972656E0
2.014898450E1,7.051544189E-1,1.371597290E0,9.372528076E0
2.016106946E1,6.716461182E-1,1.383575439E0,9.518569946E0
2.017315442E1,6.572723389E-1,1.393142700E0,9.640670776E0
2.018523938E1,6.860046387E-1,1.419479370E0,9.729263306E0
2.019732434E1,7.027587891E-1,1.412292480E0,9.743621826E0
2.020940930E1,7.003784180E-1,1.409912109E0,9.700531006E0
2.022149426E1,7.003784180E-1,1.402725220E0,9.623916626E0
2.023360974E1,6.812133789E-1,1.407516479E0,9.566452026E0
2.024569470E1,6.836090088E-1,1.441024780E0,9.432373047E0
2.025777966E1,6.740417480E-1,1.472152710E0,9.540115356E0
2.026986462E1,6.788177490E-1,1.498489380E0,9.571243286E0
2.028194958E1,6.836090088E-1,1.539199829E0,9.537719727E0
2.029403455E1,7.099456787E-1,1.582290649E0,9.480270386E0
2.030611951E1,7.123413086E-1,1.615814209E0,9.422805786E0
2.031820447E1,6.884002686E-1,1.639755249E0,9.425201416E0
2.033031995E1,6.668548584E-1,1.651718140E0,9.468292236E0
2.034240491E1,6.429138184E-1,1.661300659E0,9.516174316E0
2.035448987E1,6.764373779E-1,1.690032959E0,9.566452026E0
2.036657483E1,7.099456787E-1,1.713973999E0,9.520965576E0
2.037865979E1,7.290954590E-1,1.723541260E0,9.451538086E0
2.039074475E1,7.267150879E-1,1.737915039E0,9.427597046E0
2.040286023E1,7.099456787E-1,1.759460449E0,9.506607056E0
2.041494519E1,6.907958984E-1,1.783401489E0,9.595184326E0
2.042703015E1,6.716461182E-1,1.804946899E0,9.616729736E0
2.043911511E1,6.237640381E-1,1.826492310E0,9.583221436E0
2.045120007E1,6.069946289E-1,1.852828979E0,9.528152466E0
2.046328503E1,6.309356689E-1,1.888748169E0,9.463500977E0
2.047537000E1,6.644592285E-1,1.919876099E0,9.451538086E0
2.048748547E1,6.788177490E-1,1.934234619E0,9.441955566E0
2.049957043E1,6.764373779E-1,1.917480469E0,9.322250366E0
2.051165540E1,8.009338379E-1,1.941421509E0,9.154647827E0
2.052374036E1,8.105010986E-1,1.989303589E0,9.334213257E0
2.053582532E1,6.716461182E-1,1.948608398E0,9.662231445E0
2.054791028E1,5.782623291E-1,1.891143799E0,9.813064575E0
2.055999524E1,6.333312988E-1,1.900711060E0,9.571243286E0
2.057211072E1,7.243194580E-1,1.931838989E0,9.113952637E0
2.058419568E1,7.674102783E-1,1.977325439E0,8.905654907E0
2.059628064E1,7.602233887E-1,2.070709229E0,9.195358276E0
2.060836560E1,7.123413086E-1,2.111404419E0,9.655044556E0
2.062045056E1,6.237640381E-1,2.111404419E0,9.829818726E0
2.063253552E1,5.830535889E-1,2.099441528E0,9.753204346E0
2.064465100E1,6.213684082E-1,2.116195679E0,9.616729736E0
2.065673596E1,6.860046387E-1,2.111404419E0,9.501815796E0
2.066882092E1,7.195281982E-1,2.082672119E0,9.367736816E0
2.068090588E1,6.979827881E-1,2.092254639E0,9.245635986E0
2.069299084E1,6.860046387E-1,2.111404419E0,9.226486206E0
2.070507580E1,6.884002686E-1,2.140136719E0,9.327041626E0
2.071716077E1,7.003784180E-1,2.171264648E0,9.468292236E0
2.072927624E1,7.027587891E-1,2.211959839E0,9.542510986E0
2.074136121E1,7.099456787E-1,2.245483398E0,9.511383057E0
2.075344617E1,7.003784180E-1,2.255065918E0,9.444351196E0
2.076553113E1,7.171325684E-1,2.259841919E0,9.379714966E0
2.077761609E1,7.219238281E-1,2.259841919E0,9.331817627E0
2.078970105E1,7.338867188E-1,2.247879028E0,9.293518066E0
2.080178601E1,7.290954590E-1,2.276611328E0,9.305480957E0
2.081390149E1,7.003784180E-1,2.300552368E0,9.441955566E0
2.082598645E1,6.860046387E-1,2.329284668E0,9.573638916E0
2.083807141E1,6.812133789E-1,2.317306519E0,9.480270386E0
2.085015637E1,6.812133789E-1,2.312515259E0,9.267181396E0
2.086224133E1,7.219238281E-1,2.329284668E0,9.173812866E0
2.087432629E1,7.099456787E-1,2.355621338E0,9.219299316E0
2.088641126E1,6.788177490E-1,2.384338379E0,9.286331177E0
2.089852673E1,6.477050781E-1,2.425048828E0,9.310272217E0
2.091061169E1,6.501007080E-1,2.441802979E0,9.350982666E0
2.092269666E1,6.596679688E-1,2.468139648E0,9.401260376E0
2.093478162E1,6.884002686E-1,2.487289429E0,9.418014526E0
2.094686658E1,7.219238281E-1,2.492080688E0,9.408432007E0
2.095895154E1,7.338867188E-1,2.489685059E0,9.406051636E0
2.097103650E1,7.243194580E-1,2.472930908E0,9.358154297E0
2.098315198E1,7.099456787E-1,2.453781128E0,9.324645996E0
2.099523694E1,6.979827881E-1,2.446594238E0,9.305480957E0
2.100732190E1,6.740417480E-1,2.448989868E0,9.293518066E0
2.101940686E1,6.644592285E-1,2.468139648E0,9.329437256E0
2.103149182E1,6.668548584E-1,2.494476318E0,9.355758667E0
2.104357678E1,6.860046387E-1,2.520812988E0,9.372528076E0
2.105566174E1,6.955871582E-1,2.530395508E0,9.362945557E0
2.106777722E1,6.836090088E-1,2.542358398E0,9.310272217E0
2.107986218E1,6.740417480E-1,2.554336548E0,9.291122437E0
2.109194714E1,6.740417480E-1,2.587860107E0,9.267181396E0
2.110403210E1,6.860046387E-1,2.604614258E0,9.262390137E0
2.111611706E1,6.907958984E-1,2.597427368E0,9.269577026E0
2.112820203E1,6.884002686E-1,2.616577148E0,9.271972656E0
2.114031751E1,6.812133789E-1,2.623764038E0,9.288726807E0
2.115240246E1,6.692504883E-1,2.650100708E0,9.310272217E0
2.116448743E1,6.572723389E-1,2.650100708E0,9.327041626E0
2.117657239E1,6.524810791E-1,2.650100708E0,9.315063477E0
2.118865735E1,6.524810791E-1,2.654891968E0,9.310272217E0
2.120074231E1,6.716461182E-1,2.671646118E0,9.298309326E0
2.121282727E1,6.788177490E-1,2.683624268E0,9.307876587E0
2.122494275E1,6.907958984E-1,2.697982788E0,9.327041626E0
2.123702771E1,6.836090088E-1,2.693191528E0,9.336608887E0
2.124911267E1,6.716461182E-1,2.690811157E0,9.374923706E0
2.126119763E1,6.572723389E-1,2.688415527E0,9.224090576E0
2.127328259E1,6.572723389E-1,2.681228638E0,9.152252197E0
2.128536755E1,6.668548584E-1,2.688415527E0,9.166625977E0
2.129745251E1,6.788177490E-1,2.714752197E0,9.228866577E0
2.130956799E1,6.788177490E-1,2.741088867E0,9.276763916E0
2.132165295E1,6.548767090E-1,2.755447388E0,9.324645996E0
2.133373792E1,6.213684082E-1,2.750656128E0,9.310272217E0
2.134582288E1,6.333312988E-1,2.767425537E0,9.329437256E0
2.135790784E1,6.429138184E-1,2.776992798E0,9.240844727E0
2.136999280E1,6.572723389E-1,2.779388428E0,9.269577026E0
2.138207776E1,6.716461182E-1,2.760238647E0,9.195358276E0
2.139419324E1,7.410736084E-1,2.784179688E0,9.027755737E0
2.140627820E1,7.338867188E-1,2.848815918E0,9.173812866E0
2.141836316E1,6.309356689E-1,2.844039917E0,9.480270386E0
2.143044812E1,5.782623291E-1,2.808120728E0,9.511383057E0
2.144253308E1,6.381225586E-1,2.767425537E0,9.212112427E0
2.145461804E1,7.195281982E-1,2.755447388E0,8.872131348E0
2.146673352E1,7.698059082E-1,2.796142578E0,8.762008667E0
2.147881848E1,7.243194580E-1,2.867980957E0,8.996643066E0
2.149090344E1,6.309356689E-1,2.920654297E0,9.307876587E0
2.150298840E1,5.615081787E-1,2.954162598E0,9.470687866E0
2.151507336E1,5.662994385E-1,2.949371338E0,9.530548096E0
2.152715833E1,6.333312988E-1,2.927825928E0,9.552093506E0
2.153924329E1,6.979827881E-1,2.894317627E0,9.482666016E0
2.155132825E1,7.243194580E-1,2.870361328E0,9.255203247E0
2.156344373E1,7.123413086E-1,2.865585327E0,9.025360107E0
2.157552869E1,7.075500488E-1,2.882339478E0,8.965515137E0
2.158761365E1,6.955871582E-1,2.884735107E0,9.080429077E0
2.159969861E1,7.027587891E-1,2.889526367E0,9.224090576E0
2.161178357E1,6.644592285E-1,2.899093628E0,9.288726807E0
2.162386853E1,6.477050781E-1,2.920654297E0,9.288726807E0
2.163595349E1,6.501007080E-1,2.923034668E0,9.276763916E0
2.164806897E1,6.501007080E-1,2.937408447E0,9.243240356E0
2.166015393E1,6.524810791E-1,2.932617188E0,9.200149536E0
2.167223889E1,6.955871582E-1,2.942199707E0,9.128311157E0
2.168432385E1,7.123413086E-1,2.958953857E0,9.101974487E0
2.169640881E1,7.075500488E-1,2.978103638E0,9.204925537E0
2.170849377E1,6.907958984E-1,2.990081787E0,9.348587036E0
2.172060925E1,6.788177490E-1,2.990081787E0,9.276763916E0
2.173269421E1,6.788177490E-1,2.975708008E0,9.106765747E0
2.174477917E1,6.692504883E-1,2.961349487E0,9.027755737E0
2.175686414E1,6.884002686E-1,2.994873047E0,9.025360107E0
2.176894910E1,6.572723389E-1,3.002044678E0,9.061279297E0
2.178103406E1,6.357269287E-1,3.011627197E0,9.099594116E0
2.179311902E1,6.213684082E-1,3.025985718E0,9.200149536E0
2.180523450E1,6.165771484E-1,3.035568237E0,9.283935547E0
2.181731946E1,6.501007080E-1,3.049926758E0,9.293518066E0
2.182940442E1,6.572723389E-1,3.047546387E0,9.248031616E0
2.184148938E1,6.716461182E-1,3.049926758E0,9.202529907E0
2.185357434E1,6.884002686E-1,3.042755127E0,9.171417236E0
2.186565930E1,6.955871582E-1,3.028381348E0,9.159439087E0
2.187774426E1,6.979827881E-1,3.021209717E0,9.176208496E0
2.188985974E1,6.692504883E-1,3.002044678E0,9.183380127E0
2.190194470E1,6.405181885E-1,3.011627197E0,9.145080566E0
2.191402966E1,6.429138184E-1,3.033172607E0,9.130706787E0
2.192611462E1,6.477050781E-1,3.049926758E0,9.154647827E0
2.193819959E1,6.524810791E-1,3.049926758E0,9.180984497E0
2.195028455E1,6.716461182E-1,3.073883057E0,9.164230347E0
2.196236951E1,6.860046387E-1,3.085845947E0,9.135498047E0
2.197448498E1,6.860046387E-1,3.078659058E0,9.106765747E0
2.198656995E1,6.860046387E-1,3.078659058E0,9.116348267E0
2.199865491E1,6.907958984E-1,3.085845947E0,9.113952637E0
2.201073987E1,6.812133789E-1,3.085845947E0,9.133102417E0
2.202282483E1,6.620635986E-1,3.100204468E0,9.135498047E0
2.203490979E1,6.572723389E-1,3.100204468E0,9.145080566E0
2.204699475E1,6.644592285E-1,3.124160767E0,9.161834717E0
2.205911023E1,6.548767090E-1,3.112182617E0,9.185775757E0
2.207119519E1,6.620635986E-1,3.126541138E0,9.190567017E0
2.208328015E1,6.716461182E-1,3.124160767E0,9.195358276E0
2.209536511E1,6.333312988E-1,3.114578247E0,9.195358276E0
2.210745007E1,6.716461182E-1,3.131332397E0,9.123535156E0
2.211953503E1,6.955871582E-1,3.133728027E0,9.082824707E0
2.213162000E1,6.716461182E-1,3.114578247E0,9.080429077E0
2.214373547E1,6.716461182E-1,3.121765137E0,9.121139526E0
2.215582043E1,6.955871582E-1,3.140914917E0,9.180984497E0
2.216790540E1,6.788177490E-1,3.152877808E0,9.202529907E0
2.217999036E1,6.381225586E-1,3.157669067E0,9.171417236E0
2.219207532E1,6.237640381E-1,3.157669067E0,9.116348267E0
2.220416028E1,6.309356689E-1,3.138519287E0,9.075637817E0
2.221624524E1,6.285400391E-1,3.133728027E0,9.109161377E0
2.222836072E1,6.357269287E-1,3.143310547E0,9.133102417E0
2.224044568E1,6.884002686E-1,3.124160767E0,9.051696777E0
2.225253064E1,7.698059082E-1,3.148101807E0,8.886505127E0
2.226461560E1,7.147369385E-1,3.174438477E0,9.109161377E0
2.227670056E1,5.902404785E-1,3.152877808E0,9.377319336E0
2.228878552E1,5.567169189E-1,3.126541138E0,9.343795776E0
2.230090100E1,6.381225586E-1,3.085845947E0,9.106765747E0
2.231298596E1,7.171325684E-1,3.064300537E0,8.884109497E0
2.232507092E1,7.338867188E-1,3.083450317E0,8.809890747E0
2.233715588E1,6.764373779E-1,3.145706177E0,8.941574097E0
2.234924084E1,5.998229980E-1,3.193588257E0,9.032546997E0
2.236132580E1,5.758666992E-1,3.231887817E0,9.236053467E0
2.237341077E1,6.045989990E-1,3.236679077E0,9.372528076E0
2.238552624E1,6.501007080E-1,3.203155518E0,9.453933716E0
2.239761121E1,7.243194580E-1,3.174438477E0,9.401260376E0
2.240969617E1,7.338867188E-1,3.140914917E0,9.180984497E0
2.242178113E1,7.290954590E-1,3.131332397E0,8.946350098E0
2.243386609E1,7.099456787E-1,3.140914917E0,8.888900757E0
2.244595105E1,6.812133789E-1,3.131332397E0,9.018188477E0
2.245803601E1,6.668548584E-1,3.152877808E0,9.166625977E0
2.247015149E1,6.429138184E-1,3.155273438E0,9.216903687E0
2.248223645E1,6.333312988E-1,3.164855957E0,9.214508057E0
2.249432141E1,6.381225586E-1,3.167251587E0,9.180984497E0
2.250640637E1,6.405181885E-1,3.162460327E0,9.135498047E0
2.251849133E1,6.788177490E-1,3.162460327E0,9.104370117E0
2.253057629E1,6.955871582E-1,3.155273438E0,9.070861816E0
2.254266126E1,7.003784180E-1,3.152877808E0,9.066070557E0
2.255477673E1,6.836090088E-1,3.179214478E0,9.128311157E0
2.256686169E1,6.740417480E-1,3.200775146E0,9.252822876E0
2.257894666E1,6.668548584E-1,3.198379517E0,9.224090576E0
2.259103162E1,6.836090088E-1,3.169647217E0,9.056488037E0
2.260311658E1,6.836090088E-1,3.167251587E0,8.970306396E0
2.261520154E1,6.572723389E-1,3.167251587E0,8.977478027E0
2.262728650E1,6.477050781E-1,3.188796997E0,9.003814697E0
2.263940198E1,6.381225586E-1,3.219924927E0,9.034942627E0
2.265148694E1,6.285400391E-1,3.227111816E0,9.116348267E0
2.266357190E1,6.357269287E-1,3.224716187E0,9.209716797E0
2.267565686E1,6.548767090E-1,3.210342407E0,9.243240356E0
2.268774182E1,6.788177490E-1,3.205551147E0,9.188171387E0
2.269982678E1,6.812133789E-1,3.195983887E0,9.133102417E0
2.271194226E1,6.812133789E-1,3.193588257E0,9.101974487E0
2.272402722E1,6.812133789E-1,3.169647217E0,9.101974487E0
2.273611218E1,6.716461182E-1,3.148101807E0,9.130706787E0
2.274819714E1,6.524810791E-1,3.145706177E0,9.142684937E0
2.276028210E1,6.309356689E-1,3.131332397E0,9.121139526E0
2.277236706E1,6.429138184E-1,3.148101807E0,9.101974487E0
2.278445203E1,6.548767090E-1,3.152877808E0,9.116348267E0
2.279656751E1,6.716461182E-1,3.160064697E0,9.142684937E0
2.280865246E1,6.812133789E-1,3.167251587E0,9.137893677E0
2.282073743E1,6.860046387E-1,3.162460327E0,9.106765747E0
2.283282239E1,7.051544189E-1,3.157669067E0,9.085220337E0
2.284490735E1,6.955871582E-1,3.167251587E0,9.090011597E0
2.285699231E1,6.884002686E-1,3.169647217E0,9.099594116E0
2.286907727E1,6.836090088E-1,3.167251587E0,9.111557007E0
2.288119275E1,6.668548584E-1,3.169647217E0,9.133102417E0
2.289327771E1,6.524810791E-1,3.172042847E0,9.171417236E0
2.290536267E1,6.453094482E-1,3.179214478E0,9.197753906E0
2.291744763E1,6.572723389E-1,3.169647217E0,9.171417236E0
2.292953259E1,6.477050781E-1,3.126541138E0,9.087615967E0
2.294161755E1,6.572723389E-1,3.116973877E0,9.082824707E0
2.295370251E1,6.668548584E-1,3.121765137E0,9.106765747E0
2.296581799E1,6.836090088E-1,3.131332397E0,9.157043457E0
2.297790295E1,6.955871582E-1,3.145706177E0,9.216903687E0
2.298998792E1,6.644592285E-1,3.138519287E0,9.231262207E0
2.300207288E1,6.141815186E-1,3.119369507E0,9.192962646E0
2.301415784E1,6.093902588E-1,3.088241577E0,9.109161377E0
2.302624280E1,6.261444092E-1,3.083450317E0,9.058883667E0
2.303832776E1,6.381225586E-1,3.061904907E0,9.109161377E0
2.305044324E1,6.716461182E-1,3.035568237E0,9.154647827E0
2.306252820E1,7.698059082E-1,3.028381348E0,9.030151367E0
2.307461316E1,7.889556885E-1,3.054718018E0,9.003814697E0
2.308669812E1,6.668548584E-1,3.023590088E0,9.200149536E0
2.309878308E1,5.710906982E-1,2.990081787E0,9.348587036E0
2.311086804E1,5.854492188E-1,2.939804077E0,9.293518066E0
2.312298352E1,6.524810791E-1,2.935012817E0,9.049301147E0
2.313506848E1,7.171325684E-1,2.954162598E0,8.879318237E0
2.314715344E1,7.051544189E-1,3.023590088E0,8.936782837E0
2.315923840E1,6.453094482E-1,3.083450317E0,9.169021606E0
2.317132336E1,6.022033691E-1,3.102600098E0,9.327041626E0
2.318340833E1,6.045989990E-1,3.071487427E0,9.355758667E0
2.319549329E1,6.429138184E-1,3.030776978E0,9.384490967E0
2.320760876E1,6.860046387E-1,2.980499268E0,9.386886597E0
2.321969373E1,7.195281982E-1,2.935012817E0,9.317459106E0
2.323177869E1,7.267150879E-1,2.901489258E0,9.152252197E0
2.324386365E1,6.884002686E-1,2.891921997E0,9.022964478E0
2.325594861E1,6.764373779E-1,2.879943848E0,9.061279297E0
2.326803357E1,6.668548584E-1,2.875152588E0,9.224090576E0
2.328011853E1,6.596679688E-1,2.879943848E0,9.367736816E0
2.329223401E1,6.692504883E-1,2.887130737E0,9.396469116E0
2.330431897E1,6.812133789E-1,2.884735107E0,9.334213257E0
2.331640393E1,6.955871582E-1,2.872756958E0,9.226486206E0
2.332848889E1,6.955871582E-1,2.848815918E0,9.111557007E0
2.334057385E1,7.195281982E-1,2.817703247E0,9.046920776E0
2.335265881E1,7.147369385E-1,2.815307617E0,9.073257446E0
2.336474377E1,7.123413086E-1,2.839248657E0,9.133102417E0
2.337685925E1,7.003784180E-1,2.856002808E0,9.355758667E0
2.338894421E1,6.955871582E-1,2.827270508E0,9.444351196E0
2.340102917E1,7.075500488E-1,2.793746948E0,9.303100586E0
2.341311414E1,7.219238281E-1,2.786575317E0,9.147476196E0
2.342519910E1,7.003784180E-1,2.774597168E0,9.082824707E0
2.343728406E1,6.477050781E-1,2.781784058E0,9.078033447E0
2.344936902E1,6.213684082E-1,2.800933838E0,9.137893677E0
2.346148450E1,6.357269287E-1,2.810516357E0,9.219299316E0
2.347356946E1,6.644592285E-1,2.827270508E0,9.324645996E0
2.348565442E1,7.099456787E-1,2.800933838E0,9.401260376E0
2.349773938E1,7.314910889E-1,2.781784058E0,9.394073486E0
2.350982434E1,7.362823486E-1,2.757843018E0,9.360549927E0
2.352190930E1,7.267150879E-1,2.738693237E0,9.324645996E0
2.353399426E1,7.123413086E-1,2.695587158E0,9.274368286E0
2.354610974E1,6.860046387E-1,2.664474487E0,9.259994507E0
2.355819470E1,6.644592285E-1,2.640518188E0,9.281539917E0
2.357027966E1,6.716461182E-1,2.642913818E0,9.274368286E0
2.358236462E1,6.955871582E-1,2.657287598E0,9.259994507E0
2.359444959E1,7.171325684E-1,2.671646118E0,9.250427246E0
2.360653455E1,7.171325684E-1,2.666854858E0,9.257598877E0
2.361861951E1,7.051544189E-1,2.635742188E0,9.255203247E0
2.363073498E1,7.003784180E-1,2.633346558E0,9.259994507E0
2.364281995E1,7.243194580E-1,2.635742188E0,9.259994507E0
2.365490491E1,7.338867188E-1,2.638137817E0,9.271972656E0
2.366698987E1,7.171325684E-1,2.618972778E0,9.238449097E0
2.367907483E1,6.955871582E-1,2.595031738E0,9.209716797E0
2.369115979E1,6.907958984E-1,2.578277588E0,9.219299316E0
2.370324475E1,6.907958984E-1,2.592636108E0,9.307876587E0
2.371536023E1,6.955871582E-1,2.609405518E0,9.432373047E0
2.372744519E1,6.668548584E-1,2.587860107E0,9.518569946E0
2.373953015E1,6.453094482E-1,2.575881958E0,9.470687866E0
2.375161511E1,6.620635986E-1,2.575881958E0,9.341400146E0
2.376370007E1,6.764373779E-1,2.575881958E0,9.264785767E0
2.377578503E1,6.740417480E-1,2.549545288E0,9.303100586E0
2.378790051E1,7.075500488E-1,2.516021729E0,9.281539917E0
2.379998547E1,7.985382080E-1,2.480117798E0,9.075637817E0
2.381207043E1,8.176879883E-1,2.475326538E0,8.979873657E0
2.382415540E1,7.099456787E-1,2.437011719E0,9.274368286E0
2.383624036E1,6.333312988E-1,2.386734009E0,9.623916626E0
2.384832532E1,6.405181885E-1,2.343643188E0,9.678985596E0
2.386041028E1,6.836090088E-1,2.350830078E0,9.379714966E0
2.387252576E1,7.195281982E-1,2.386734009E0,9.116348267E0
2.388461072E1,7.530517578E-1,2.463348389E0,9.161834717E0
2.389669568E1,7.195281982E-1,2.511245728E0,9.396469116E0
2.390878064E1,6.501007080E-1,2.492080688E0,9.525756836E0
2.392086560E1,6.093902588E-1,2.448989868E0,9.489837646E0
2.393295056E1,6.309356689E-1,2.403503418E0,9.391677856E0
2.394503552E1,7.027587891E-1,2.353225708E0,9.317459106E0
2.395715100E1,7.434692383E-1,2.314910889E0,9.276763916E0
2.396923596E1,7.458648682E-1,2.293365479E0,9.252822876E0
2.398132092E1,7.314910889E-1,2.279006958E0,9.257598877E0
2.399340588E1,6.979827881E-1,2.269424438E0,9.377319336E0
2.400549084E1,6.788177490E-1,2.271820068E0,9.556884766E0
2.401757580E1,6.788177490E-1,2.271820068E0,9.650253296E0
2.402966077E1,7.075500488E-1,2.269424438E0,9.602371216E0
2.404177624E1,7.267150879E-1,2.274215698E0,9.475479126E0
2.405386121E1,7.338867188E-1,2.262237549E0,9.365341187E0
2.406594617E1,7.314910889E-1,2.247879028E0,9.295913696E0
2.407803113E1,7.338867188E-1,2.233505249E0,9.243240356E0
2.409011609E1,7.314910889E-1,2.221542358E0,9.245635986E0
2.410220105E1,7.458648682E-1,2.252670288E0,9.398864746E0
2.411428601E1,7.386779785E-1,2.238296509E0,9.573638916E0
2.412640149E1,7.171325684E-1,2.197601318E0,9.513778687E0
2.413848645E1,7.458648682E-1,2.171264648E0,9.312667847E0
2.415057141E1,7.482604980E-1,2.159286499E0,9.274368286E0
2.416265637E1,7.195281982E-1,2.152114868E0,9.398864746E0
2.417474133E1,6.860046387E-1,2.154495239E0,9.444351196E0
2.418682629E1,6.477050781E-1,2.156890869E0,9.408432007E0
2.419894177E1,6.596679688E-1,2.149719238E0,9.398864746E0
2.421102673E1,7.051544189E-1,2.164077759E0,9.463500977E0
2.422311169E1,7.386779785E-1,2.149719238E0,9.537719727E0
2.423519666E1,7.458648682E-1,2.128158569E0,9.542510986E0
2.424728162E1,7.386779785E-1,2.094650269E0,9.513778687E0
2.425936658E1,7.219238281E-1,2.063522339E0,9.374923706E0
2.427145154E1,7.123413086E-1,2.044372559E0,9.372528076E0
2.428356702E1,6.955871582E-1,2.032394409E0,9.444351196E0
2.429565198E1,6.907958984E-1,2.027603149E0,9.473083496E0
2.430773694E1,7.123413086E-1,2.020431519E0,9.451538086E0
2.431982190E1,7.219238281E-1,2.029998779E0,9.434768677E0
2.433190686E1,7.171325684E-1,2.037185669E0,9.449142456E0
2.434399182E1,7.290954590E-1,2.029998779E0,9.386886597E0
2.435607678E1,7.147369385E-1,2.001266479E0,9.420410156E0
2.436819226E1,7.147369385E-1,1.984512329E0,9.382095337E0
2.438027722E1,7.219238281E-1,1.962966919E0,9.343795776E0
2.439236218E1,7.171325684E-1,1.948608398E0,9.341400146E0
2.440444714E1,7.195281982E-1,1.958175659E0,9.410827637E0
2.441653210E1,7.314910889E-1,1.946212769E0,9.554489136E0
2.442861706E1,7.051544189E-1,1.970153809E0,9.667007446E0
2.444070203E1,6.692504883E-1,1.955780029E0,9.686172485E0
2.445281751E1,6.524810791E-1,1.943817139E0,9.578430176E0
2.446490246E1,6.668548584E-1,1.962966919E0,9.439559937E0
2.447698743E1,6.764373779E-1,1.967758179E0,9.403656006E0
2.448907239E1,6.884002686E-1,1.948608398E0,9.480270386E0
2.450115735E1,7.099456787E-1,1.931838989E0,9.439559937E0
2.451324231E1,8.033294678E-1,1.924652100E0,9.176208496E0
2.452532727E1,8.057098389E-1,1.912689209E0,9.157043457E0
2.453744275E1,6.836090088E-1,1.862411499E0,9.497024536E0
2.454952771E1,6.429138184E-1,1.807342529E0,9.719680786E0
2.456161267E1,6.716461182E-1,1.776214600E0,9.645462036E0
2.457369763E1,6.955871582E-1,1.783401489E0,9.398864746E0
2.458578259E1,7.362823486E-1,1.864807129E0,9.329437256E0
2.459786755E1,7.554321289E-1,1.929443359E0,9.468292236E0
2.460995251E1,7.123413086E-1,1.931838989E0,9.650253296E0
2.462206799E1,6.429138184E-1,1.888748169E0,9.662231445E0
2.463415295E1,6.405181885E-1,1.860015869E0,9.554489136E0
2.464623792E1,6.716461182E-1,1.814529419E0,9.473083496E0
2.465832288E1,7.123413086E-1,1.800155640E0,9.427597046E0
2.467040784E1,7.195281982E-1,1.771423340E0,9.372528076E0
2.468249280E1,7.123413086E-1,1.754669189E0,9.315063477E0
2.469460828E1,6.979827881E-1,1.747482300E0,9.389282227E0
2.470669324E1,6.860046387E-1,1.747482300E0,9.564056396E0
2.471877820E1,6.907958984E-1,1.749877930E0,9.726867676E0
2.473086316E1,7.219238281E-1,1.759460449E0,9.724472046E0
2.474294812E1,7.267150879E-1,1.759460449E0,9.580825806E0
2.475503308E1,7.267150879E-1,1.764251709E0,9.473083496E0
2.476711804E1,7.290954590E-1,1.754669189E0,9.425201416E0
2.477923352E1,7.338867188E-1,1.747482300E0,9.437164307E0
2.479131848E1,7.219238281E-1,1.754669189E0,9.461105347E0
2.480340344E1,7.267150879E-1,1.757064819E0,9.473083496E0
2.481548840E1,7.314910889E-1,1.766647339E0,9.590393066E0
2.482757336E1,7.219238281E-1,1.759460449E0,9.686172485E0
2.483965833E1,7.314910889E-1,1.725936890E0,9.592788696E0
2.485174329E1,7.434692383E-1,1.728332520E0,9.449142456E0
2.486385876E1,7.243194580E-1,1.740310669E0,9.475479126E0
2.487594373E1,7.099456787E-1,1.725936890E0,9.492233276E0
2.488802869E1,6.692504883E-1,1.730728149E0,9.391677856E0
2.490011365E1,6.668548584E-1,1.742706299E0,9.370132446E0
2.491219861E1,6.979827881E-1,1.764251709E0,9.470687866E0
2.492428357E1,7.410736084E-1,1.747482300E0,9.568847656E0
2.493636853E1,7.602233887E-1,1.737915039E0,9.635894775E0
2.494848401E1,7.482604980E-1,1.711578369E0,9.623916626E0
2.496056897E1,7.027587891E-1,1.682846069E0,9.561660767E0
2.497265393E1,6.740417480E-1,1.654113770E0,9.501815796E0
2.498473889E1,6.788177490E-1,1.642135620E0,9.485046387E0
2.499682385E1,6.788177490E-1,1.639755249E0,9.497024536E0
2.500890881E1,6.907958984E-1,1.625381470E0,9.506607056E0
2.502102429E1,7.314910889E-1,1.646926880E0,9.525756836E0
2.503310925E1,7.506561279E-1,1.649322510E0,9.564056396E0
2.504519421E1,7.267150879E-1,1.649322510E0,9.583221436E0
2.505727917E1,7.075500488E-1,1.634963989E0,9.511383057E0
2.506936414E1,6.716461182E-1,1.606231689E0,9.420410156E0
2.508144910E1,6.692504883E-1,1.599044800E0,9.410827637E0
2.509353406E1,7.171325684E-1,1.603836060E0,9.434768677E0
2.510564954E1,7.506561279E-1,1.608627319E0,9.439559937E0
2.511773450E1,7.434692383E-1,1.606231689E0,9.528152466E0
2.512981946E1,6.955871582E-1,1.599044800E0,9.664611816E0
2.514190442E1,6.668548584E-1,1.601440430E0,9.731658936E0
2.515398938E1,6.524810791E-1,1.587081909E0,9.676589966E0
2.516607434E1,6.692504883E-1,1.589477539E0,9.674194336E0
2.517815930E1,6.836090088E-1,1.587081909E0,9.609558105E0
2.519027478E1,7.578277588E-1,1.579895020E0,9.408432007E0
2.520235974E1,8.583831787E-1,1.587081909E0,9.185775757E0
2.521444470E1,7.985382080E-1,1.551162720E0,9.372528076E0
2.522652966E1,6.692504883E-1,1.481735229E0,9.714889526E0
2.523861462E1,6.381225586E-1,1.431457520E0,9.829818726E0
2.525069959E1,6.764373779E-1,1.426666260E0,9.564056396E0
2.526278455E1,7.099456787E-1,1.448211670E0,9.350982666E0
2.527490002E1,7.482604980E-1,1.527221680E0,9.367736816E0
2.528698498E1,7.554321289E-1,1.584686279E0,9.619125366E0
2.529906995E1,7.027587891E-1,1.565521240E0,9.784332275E0
2.531115491E1,6.429138184E-1,1.522430420E0,9.743621826E0
2.532323987E1,6.405181885E-1,1.498489380E0,9.647857666E0
2.533532483E1,6.836090088E-1,1.486526489E0,9.542510986E0
2.534740979E1,7.147369385E-1,1.462585449E0,9.487442017E0
2.535952527E1,7.386779785E-1,1.438629150E0,9.410827637E0
2.537161023E1,7.267150879E-1,1.429061890E0,9.418014526E0
