"Time (s)","Linear Acceleration x (m/s^2)","Linear Acceleration y (m/s^2)","Linear Acceleration z (m/s^2)"
1.264552380E-1,-1.280355453E-2,1.148976386E-2,-6.719493866E-2
1.364955220E-1,-4.096376896E-2,1.713792980E-2,-3.019428253E-2
1.465663220E-1,-1.751172543E-2,3.078873456E-2,-6.429958344E-2
1.566066060E-1,4.675388336E-3,6.204591691E-2,-1.460638046E-1
1.666774060E-1,4.036068916E-3,6.890338659E-2,-1.911211014E-1
1.767482070E-1,2.851355076E-2,1.974627376E-2,-1.584110260E-1
1.868190080E-1,4.005908966E-2,-6.716772914E-3,-6.969738007E-2
1.968592910E-1,5.563700199E-2,2.127593756E-2,-1.140594482E-2
2.069300920E-1,5.727386475E-2,1.057463884E-2,1.202774048E-2
2.170008930E-1,5.574083328E-2,3.037422895E-2,-5.323410034E-2
2.270716940E-1,6.690120697E-2,6.068797410E-2,-1.223821640E-1
2.371424940E-1,4.105448723E-2,7.893131673E-2,-1.120615005E-1
2.472132950E-1,4.593372345E-3,3.923617303E-2,-7.355690002E-3
2.572840960E-1,-1.692020893E-2,1.301431656E-2,1.158733368E-1
2.673548970E-1,-9.725093842E-3,1.350060105E-3,1.228151321E-1
2.774256970E-1,-9.469270706E-3,-9.881764650E-3,8.957862854E-3
2.874964980E-1,8.898377419E-3,-2.775903046E-2,-2.137660980E-2
2.975672990E-1,3.124845028E-2,-1.457232237E-2,7.431030273E-3
3.076381000E-1,3.046071529E-2,7.303431630E-3,2.302169800E-3
3.177089010E-1,1.609349251E-2,1.691834629E-2,-4.471397400E-2
3.277797010E-1,1.334154606E-2,1.024308801E-2,-7.828807831E-2
3.378505020E-1,1.078927517E-2,1.318538189E-2,-6.420326233E-2
3.479213030E-1,1.757025719E-3,2.114057541E-3,-4.362678528E-2
3.579921040E-1,-1.170825958E-2,-1.568560302E-2,-7.374763489E-3
3.680629040E-1,-1.700282097E-3,-3.349438310E-2,3.490924835E-2
3.781337050E-1,8.010387421E-3,-5.335244536E-2,6.434345245E-2
3.882045060E-1,-3.828048706E-3,-3.339399397E-2,7.183456421E-2
3.982753070E-1,1.299452782E-2,-9.613901377E-3,4.653644562E-2
4.083461080E-1,1.323819160E-2,-1.002761722E-2,4.064273834E-2
4.184169080E-1,2.037239075E-2,3.678053617E-3,6.070423126E-2
4.285182270E-1,2.476203442E-2,4.998837411E-2,8.507537842E-2
4.385890280E-1,1.955866814E-2,5.530071259E-2,4.062175751E-2
4.486598280E-1,2.451407909E-2,3.711143136E-2,-4.747772217E-2
4.587306290E-1,2.009892464E-2,5.276210606E-2,-6.049728394E-2
4.688014300E-1,1.311111450E-2,3.783938289E-2,-2.715110779E-3
4.788722310E-1,1.097047329E-2,1.612994075E-2,4.427528381E-2
4.889430310E-1,6.785392761E-3,-1.237341762E-2,1.716423035E-2
4.990138320E-1,-8.753061295E-3,-1.910066605E-2,-3.976154327E-2
5.091151510E-1,-1.758110523E-2,-1.843118668E-2,-1.775264740E-2
5.191859510E-1,-1.243269444E-2,-3.563061357E-3,5.563735962E-2
5.292567520E-1,-9.610652924E-3,1.570951939E-2,4.967784882E-2
5.393275530E-1,-2.091467381E-2,2.064792812E-2,-1.519012451E-2
5.493983540E-1,-2.051067352E-2,2.588143945E-2,-2.429199219E-2
5.594691540E-1,-2.736818790E-2,1.213125885E-2,2.571868896E-2
5.695399550E-1,-7.881879807E-3,1.504544914E-2,3.461742401E-2
5.796107560E-1,-5.016326904E-4,1.096747816E-2,2.448463440E-2
5.897120740E-1,1.324713230E-2,2.273723483E-3,1.940822601E-2
5.997828750E-1,1.736783981E-2,-1.942902803E-3,2.861499786E-2
6.098536760E-1,8.019089699E-3,-1.354604959E-2,-3.147125244E-4
6.199244770E-1,1.278400421E-3,-8.710741997E-3,-2.680778503E-3
6.299952780E-1,1.083731651E-2,-2.062107623E-2,3.286647797E-2
6.400660780E-1,-8.243560791E-3,-2.046501637E-2,6.067371368E-2
6.501368790E-1,-1.486229897E-2,-3.728359938E-2,5.483055115E-2
6.602381970E-1,-1.430368423E-2,-3.947061300E-2,5.149936676E-2
6.703089980E-1,1.164615154E-2,-4.164993763E-2,7.676124573E-2
6.803797990E-1,1.342225075E-2,-1.294530928E-2,9.203624725E-2
6.904506000E-1,2.276170254E-2,-8.812278509E-3,-3.728580475E-2
7.005214010E-1,2.528405190E-2,2.429991961E-3,-1.554107666E-2
7.105922010E-1,2.501201630E-2,-3.486275673E-4,4.863834381E-2
7.206630020E-1,2.212405205E-2,4.033178091E-3,1.352891922E-1
7.307643200E-1,2.454602718E-2,3.670008481E-2,1.257295609E-1
7.408351210E-1,2.049720287E-2,6.213669479E-2,1.703929901E-2
7.509059220E-1,8.920431137E-3,4.307745397E-2,-4.950332642E-2
7.609767230E-1,-7.367134094E-4,1.981577277E-2,1.759529114E-2
7.710475240E-1,4.316806793E-3,2.015937865E-2,6.912994385E-2
7.811183240E-1,-3.928899765E-3,8.733510971E-3,2.511882782E-2
7.911891250E-1,-2.708327770E-2,-2.193301916E-3,-1.547431946E-2
8.012904440E-1,-2.529203892E-2,1.274809241E-3,-7.982254028E-3
8.113612440E-1,-1.862609386E-2,6.947457790E-3,-2.908039093E-2
8.214320450E-1,-4.264593124E-3,3.020927310E-3,-9.716320038E-2
8.315028460E-1,-2.274274826E-3,6.321251392E-3,-1.072750092E-1
8.415736470E-1,1.343941689E-2,-9.596809745E-3,-1.548957825E-2
8.516444470E-1,2.891242504E-2,-3.067538142E-2,7.709693909E-2
8.617152480E-1,3.273022175E-2,-9.871274233E-3,6.155586243E-2
8.718165670E-1,1.790547371E-2,2.005855739E-2,-1.736736298E-2
8.818873670E-1,1.675868034E-2,2.688260376E-2,5.413818359E-2
8.919581680E-1,2.648377419E-2,1.962809265E-2,1.527719498E-1
9.020289690E-1,3.755235672E-2,7.233947515E-3,9.339141846E-2
9.120997700E-1,3.572690487E-2,2.247706056E-3,-4.074954987E-2
9.221705700E-1,8.992314339E-3,-6.564706564E-3,-2.568721771E-2
9.322413710E-1,1.468646526E-2,-2.673318982E-2,9.074115753E-2
9.423426900E-1,7.460355759E-3,-2.783535421E-2,7.721233368E-2
9.524134900E-1,-1.055252552E-2,-3.130376339E-2,-2.584648132E-2
9.624842910E-1,-2.233743668E-2,-4.395830631E-2,-3.006553650E-2
9.725550920E-1,-2.267193794E-2,-4.241804779E-2,4.617118835E-2
9.826258930E-1,-4.073834419E-2,-4.865542054E-2,2.863693237E-2
9.926966940E-1,-4.196310043E-2,-2.681051195E-2,-5.229473114E-2
1.002767494E0,-3.016293049E-2,-1.456944644E-2,-3.463172913E-2
1.012868813E0,4.792451859E-3,-1.193767786E-2,3.464031219E-2
1.022939613E0,1.373577118E-2,-4.035952687E-2,6.005668640E-2
1.033010414E0,2.712261677E-2,-4.243105650E-2,8.047199249E-2
1.043081215E0,3.253030777E-2,-1.811966300E-3,1.337099075E-1
1.053152016E0,6.188821793E-2,-4.735365510E-3,1.196851730E-1
1.063222817E0,4.924178123E-2,1.592859626E-3,4.431152344E-2
1.073293617E0,5.113875866E-2,2.429240942E-2,8.148193359E-3
1.083394936E0,4.068624973E-2,3.025972843E-2,5.534744263E-2
1.093465736E0,3.280639648E-2,2.429850399E-2,1.111278534E-1
1.103536537E0,1.615393162E-2,1.807866991E-2,4.761028290E-2
1.113607338E0,4.684090614E-3,4.042248428E-2,-3.829097748E-2
1.123678139E0,-1.179385185E-2,3.659830987E-2,-7.067775726E-2
1.133748940E0,-9.464740753E-3,3.575713933E-2,-2.206897736E-2
1.143819740E0,-1.905560493E-2,3.038658202E-2,5.870056152E-2
1.153921059E0,-1.226997375E-2,1.095113158E-2,4.591751099E-2
1.163991860E0,-3.264784813E-3,-8.212655783E-3,1.688289642E-2
1.174062660E0,8.152484894E-3,-5.965545774E-3,-2.247810364E-3
1.184133461E0,1.235711575E-2,-2.262017131E-2,2.824592590E-2
1.194204262E0,2.304315567E-3,-1.755286753E-2,2.556991577E-2
1.204275063E0,1.871228218E-3,-2.913658321E-2,3.466510773E-2
1.214345863E0,-8.067727089E-3,-2.871569991E-2,3.653907776E-2
1.224447182E0,-2.027451992E-2,-1.667982340E-2,3.125286102E-2
1.234517983E0,-1.562118530E-2,-1.897843182E-2,8.296966553E-5
1.244588783E0,-1.357805729E-2,-1.159130037E-2,1.674938202E-2
1.254659584E0,-7.084965706E-3,-1.622225344E-2,7.102680206E-2
1.264730385E0,8.926987648E-3,-2.084206045E-2,8.880996704E-2
1.274801186E0,1.565289497E-2,-4.539504647E-3,7.793140411E-2
1.284871986E0,8.322954178E-3,4.367128015E-3,2.005958557E-2
1.294973305E0,7.851123810E-4,-3.466755152E-3,2.688789368E-2
1.305044106E0,1.974499226E-2,-1.477897167E-3,4.059505463E-2
1.315114906E0,1.519453526E-2,1.927402616E-2,2.325439453E-2
1.325185707E0,2.018237114E-2,6.872907281E-3,8.620262146E-3
1.335256508E0,-1.930797100E-2,-9.173464775E-2,1.145482063E0
1.345327309E0,4.705823660E-1,-2.188595086E-1,1.042188644E0
1.355398110E0,9.720063210E-2,1.990700066E-1,-7.307338715E-1
1.365499428E0,-4.846565723E-1,2.183284909E-1,-2.014478683E0
1.375570229E0,-2.118114233E-1,1.813365817E-1,-8.646812439E-1
1.385641029E0,7.605886459E-2,1.321555525E-1,5.263547897E-1
1.395711830E0,7.012009621E-3,-6.880484521E-2,5.150852203E-1
1.405782631E0,1.516473293E-1,-2.353107780E-1,3.838233948E-1
1.415853432E0,2.178238630E-1,-1.811312139E-2,1.301679611E-1
1.425954750E0,-4.173314571E-2,3.672079742E-2,-1.597547531E-1
1.436025551E0,-1.705498695E-1,-2.725863457E-2,-8.204746246E-2
1.446096352E0,1.470649242E-2,3.523394465E-2,3.806514740E-1
1.456167153E0,9.677648544E-2,-3.418339789E-2,3.996171951E-1
1.466237953E0,2.491807938E-2,-6.642112136E-2,-2.118301392E-1
1.476308754E0,-5.105817318E-2,6.846487522E-3,-5.819797516E-1
1.486379555E0,-5.125629902E-2,1.496946812E-2,-3.620529175E-2
1.496480873E0,1.460325718E-2,-4.893763363E-2,5.387573242E-1
1.506551674E0,4.616689682E-2,-5.378054082E-2,2.940816879E-1
1.516622475E0,1.629650593E-2,-2.799789608E-2,-2.991886139E-1
1.526693276E0,-1.109039783E-2,-7.575124502E-3,-3.276729584E-1
1.536764076E0,1.818573475E-2,4.279658198E-3,1.993064880E-1
1.546834877E0,2.939605713E-2,2.041608095E-4,4.336509705E-1
1.556905678E0,5.476832390E-3,2.080847323E-2,5.386066437E-2
1.567006996E0,-3.876209259E-3,4.677644372E-2,-2.918100357E-1
1.577077797E0,3.076553345E-3,3.813679516E-2,-1.225605011E-1
1.587148598E0,1.366519928E-2,3.145264089E-2,1.761980057E-1
1.597219399E0,-9.215950966E-3,2.357618511E-2,1.604843140E-1
1.607290199E0,-2.107894421E-2,1.571545005E-2,-2.876663208E-2
1.617361000E0,-4.394173622E-3,-3.464356065E-3,-7.099533081E-2
1.627431801E0,2.714967728E-2,-1.093581319E-2,1.552200317E-2
1.637533119E0,1.543247700E-2,-9.372308850E-3,5.344676971E-2
1.647603920E0,-1.331305504E-2,-9.998232126E-3,6.744766235E-2
1.657674721E0,-7.692575455E-4,-9.211897850E-4,1.030702591E-1
1.667745522E0,1.662492752E-2,-1.486867666E-3,1.026830673E-1
1.677816322E0,1.398825645E-2,-7.073640823E-3,6.745338440E-3
1.687887123E0,6.574630737E-3,-3.086477518E-3,-5.278205872E-2
1.697957924E0,1.548612118E-2,1.836490631E-2,1.202201843E-2
1.708059242E0,4.265308380E-4,-3.252685070E-3,1.407756805E-1
1.718130043E0,1.441144943E-2,-1.089273393E-2,1.685857773E-1
1.728200844E0,4.629850388E-3,2.420052886E-2,6.165790558E-2
1.738271645E0,9.216547012E-3,9.544983506E-3,-5.517387390E-2
1.748342445E0,-5.561113358E-4,-4.706472158E-3,-9.671306610E-2
1.758413246E0,-1.455652714E-2,9.953781962E-3,-4.311370850E-2
1.768484047E0,-1.163673401E-2,-2.286532521E-2,7.162094116E-3
1.778585365E0,2.661585808E-3,2.325752378E-2,3.764629364E-2
1.788656166E0,1.200270653E-2,3.978465497E-2,-4.585838318E-2
1.798726967E0,2.480673790E-2,3.298619390E-2,-1.255788803E-1
1.808797768E0,6.386637688E-3,8.144512773E-3,-6.683826447E-2
1.818868569E0,6.055712700E-3,-1.664833724E-2,5.726051331E-2
1.828939369E0,1.072001457E-2,3.087893128E-3,9.626960754E-2
1.839010170E0,3.060793877E-2,-1.296132803E-2,5.434131622E-2
1.849111488E0,3.229796886E-2,-4.040898383E-2,6.765747070E-2
1.859182289E0,4.978823662E-2,-3.685858846E-2,6.190490723E-2
1.869253090E0,4.759705067E-2,-1.012971997E-2,1.105499268E-2
1.879323891E0,3.217303753E-2,-2.615109086E-3,-1.166343689E-3
1.889394692E0,-9.643077850E-3,-1.033866554E-1,2.230072021E-2
1.899465492E0,1.364684105E-2,-2.758210897E-2,-1.085338593E-1
1.909536293E0,1.757621765E-2,4.305218160E-2,-1.542882919E-1
1.919637611E0,-3.168690205E-2,-2.737766504E-2,4.693794250E-2
1.929708412E0,3.702867031E-2,1.663152874E-2,2.189941406E-1
1.939779213E0,5.900168419E-2,4.816286266E-2,1.179704666E-1
1.949850014E0,-7.929205894E-3,2.335414290E-3,-3.323078156E-2
1.959920815E0,-9.723186493E-3,-3.524850309E-2,2.456474304E-2
1.969991615E0,4.840958118E-2,-4.706549644E-2,7.620620728E-2
1.980092934E0,3.957438469E-2,-7.634764910E-2,3.276824951E-3
1.990163735E0,-2.048254013E-3,-5.608984828E-2,-3.272247314E-2
2.000234535E0,1.080465317E-2,-2.329602838E-3,2.927207947E-2
2.010305336E0,3.274953365E-2,1.091647148E-2,8.996391296E-2
2.020376137E0,3.962934017E-2,-1.643918455E-2,5.273818970E-3
2.030446938E0,3.244054317E-2,1.114709675E-2,-1.205644608E-1
2.040517738E0,5.450248718E-3,3.008124232E-2,-1.328134537E-1
2.050619057E0,-2.738666534E-2,-4.961237311E-2,4.676437378E-2
2.060689858E0,-2.234220505E-2,-1.009085625E-1,1.332683563E-1
2.070760658E0,-6.517171860E-3,-7.689516246E-2,1.256465912E-2
2.080831459E0,-1.153600216E-2,-6.290186942E-2,-1.344976425E-1
2.090902260E0,-8.390903473E-3,-5.647671223E-2,-1.581811905E-1
2.100973061E0,-1.082515717E-2,-4.561077058E-2,-2.064228058E-2
2.111043861E0,2.329385281E-2,-9.539201856E-3,8.592891693E-2
2.121145180E0,3.087544441E-2,-3.402724862E-3,1.149930954E-1
2.131215981E0,2.135682106E-2,1.409041882E-2,6.332778931E-2
2.141286781E0,1.399934292E-2,5.082562566E-3,1.279354095E-2
2.151357582E0,2.071356773E-2,2.684897184E-2,3.328323364E-3
2.161428383E0,3.224623203E-2,1.009681821E-2,1.280307770E-2
2.171499184E0,1.580619812E-2,-1.854757965E-2,3.152084351E-2
2.181569985E0,6.764054298E-3,-3.512836993E-2,-2.084159851E-2
2.191671303E0,-7.259726524E-3,-4.935088754E-2,3.624343872E-2
2.201742104E0,-2.129614353E-2,-8.248242736E-2,4.041481018E-2
2.211812904E0,-4.461801052E-2,-1.036075503E-1,2.330017090E-2
2.221883705E0,-3.196942806E-2,-1.080106497E-1,1.836776733E-3
2.231954506E0,-3.198003769E-2,-7.451888919E-2,4.396438599E-3
2.242025307E0,-2.055060863E-2,-1.788444817E-2,1.883316040E-2
2.252126625E0,-9.565949440E-3,5.455189943E-2,7.033348083E-3
2.262197426E0,-1.147985458E-3,9.075373411E-2,-1.170158386E-2
2.272268227E0,2.249479294E-3,7.469314337E-2,-4.190158844E-2
2.282339028E0,1.502180099E-2,5.170631409E-2,-7.640647888E-2
2.292409828E0,-9.044408798E-4,-2.279877663E-2,1.025295258E-2
2.302480629E0,-7.425785065E-3,-6.827288866E-2,5.542945862E-2
2.312551430E0,4.063844681E-4,-1.067898870E-1,5.727672577E-2
2.322652748E0,2.596902847E-2,-9.070599079E-2,3.290367126E-2
2.332723549E0,3.010964394E-2,-3.009328246E-2,3.967094421E-2
2.342794350E0,4.803085327E-2,2.249971032E-2,4.407691956E-2
2.352865151E0,5.315887928E-2,6.061068177E-2,6.500911713E-2
2.362935951E0,2.511572838E-2,3.663378954E-2,8.309555054E-2
2.373006752E0,-1.598155499E-2,-1.798540354E-2,5.123615265E-2
2.383077553E0,-2.087450027E-2,-5.120876431E-2,3.400802612E-3
2.393178871E0,-2.384388447E-2,-5.793023109E-2,-4.350471497E-2
2.403249672E0,1.097095013E-2,-7.356435061E-3,-3.284072876E-2
2.413320473E0,1.413965225E-2,3.785577416E-2,-1.288032532E-2
2.423391274E0,2.230823040E-2,7.127752900E-2,6.721496582E-3
2.433462074E0,2.294743061E-2,8.817890286E-2,2.119922638E-2
2.443532875E0,2.379894257E-2,9.385460615E-2,4.016399384E-2
2.453603676E0,-3.823518753E-3,7.164427638E-2,6.113529205E-2
2.463704994E0,-9.751915932E-3,5.744296312E-2,8.644485474E-2
2.473775795E0,-3.891587257E-3,5.801755190E-2,8.301162720E-2
2.483846596E0,-7.396936417E-3,5.635875463E-2,6.301498413E-2
2.493917397E0,1.094138622E-2,5.029994249E-2,3.614330292E-2
2.503988197E0,2.444326878E-2,5.389317870E-2,5.022048950E-3
2.514058998E0,-1.703500748E-4,5.271506310E-2,1.223468781E-2
2.524129799E0,-2.658581734E-2,5.639109015E-2,4.058933258E-2
2.534231117E0,-7.573723793E-3,9.819152951E-2,5.423927307E-2
2.544301918E0,4.120945930E-3,1.255415678E-1,5.112743378E-2
2.554372719E0,1.716256142E-3,1.508691609E-1,5.744647980E-2
2.564443520E0,-2.749800682E-3,1.386917233E-1,4.940509796E-2
2.574514320E0,-9.430766106E-3,9.650996327E-2,4.611396790E-2
2.584585121E0,-1.130664349E-2,6.743016839E-2,3.814888000E-2
2.594655922E0,1.322150230E-3,4.168552160E-2,4.447078705E-2
2.604757240E0,1.804471016E-3,1.667749882E-2,4.357147217E-2
2.614828041E0,-1.537799835E-5,2.530181408E-2,1.898479462E-2
2.624898842E0,-1.707196236E-3,3.199523687E-2,-7.555961609E-3
2.634969643E0,-3.629684448E-3,3.885856271E-2,-3.358840942E-2
2.645040444E0,-1.258540154E-2,3.457462788E-2,-5.680561066E-2
2.655111244E0,-2.159571648E-2,1.203954220E-2,-3.475856781E-2
2.665182045E0,-4.041242599E-2,-4.076185822E-2,1.535701752E-2
2.675283363E0,-4.258310795E-2,-2.677682042E-2,2.439689636E-2
2.685354164E0,-3.281116486E-2,8.127123117E-3,-4.230117798E-2
2.695424965E0,-1.419115067E-2,3.100797534E-2,-1.101465225E-1
2.705495766E0,3.438353539E-3,5.182951689E-2,-9.874153137E-2
2.715566567E0,-8.938312531E-4,7.071667910E-2,-5.206394196E-2
2.725637367E0,-7.638812065E-3,3.288933635E-2,-3.930759430E-2
2.735708168E0,-1.469326019E-2,7.769942284E-3,-4.567050934E-2
2.745809486E0,-2.986431122E-3,-1.176610589E-2,-4.938793182E-2
2.755880287E0,1.060426235E-2,1.420831680E-2,-1.041984558E-2
2.765951088E0,2.644741535E-2,6.605786085E-2,2.305698395E-2
2.776021889E0,2.565968037E-2,9.393066168E-2,3.225803375E-2
2.786092690E0,2.238535881E-2,7.234573364E-2,3.427696228E-2
2.796163490E0,3.083193302E-2,4.432860017E-2,3.628158569E-2
2.806264809E0,2.495861053E-2,-4.395782948E-3,1.939582825E-2
2.816335610E0,3.131437302E-2,-5.208218098E-2,4.294490814E-2
2.826406410E0,3.566610813E-2,-6.880584359E-2,7.547855377E-2
2.836477211E0,5.403518677E-3,-6.695759296E-2,6.230258942E-2
2.846548012E0,1.872839928E-1,-1.656690836E-1,-3.318252563E-1
2.856618813E0,2.965807915E-3,-1.753403544E-1,1.252374649E-1
2.866689613E0,-7.954835892E-2,-1.101070940E-1,1.800937653E-1
2.876790932E0,6.918275356E-2,5.856648088E-3,2.398939133E-1
2.886861733E0,2.855825424E-2,-1.103873551E-2,3.956089020E-1
2.896932533E0,3.829002380E-3,-5.889233947E-2,2.641582489E-2
2.907003334E0,5.209672451E-2,9.363919497E-3,-3.426303864E-1
2.917074135E0,2.710449696E-2,2.105787396E-2,-1.573152542E-1
2.927144936E0,-5.080938339E-3,-6.546896696E-2,1.431465149E-1
2.937215736E0,3.640329838E-2,-1.199433953E-1,2.469797134E-1
2.947317055E0,4.309511185E-2,-1.625209749E-1,1.594533920E-1
2.957387856E0,2.698159218E-2,-1.539097726E-1,-5.191326141E-2
2.967458656E0,2.386045456E-2,-6.583966315E-2,-1.646842957E-1
2.977529457E0,1.810097694E-2,7.198959589E-3,-8.877849579E-2
2.987600258E0,-6.423830986E-3,2.998259664E-2,3.526782990E-2
2.997671059E0,9.539365768E-3,4.540668428E-2,5.790424347E-2
3.007741860E0,-3.311991692E-3,3.731602430E-2,-1.431846619E-2
3.017843178E0,5.389809608E-3,2.727384865E-2,-6.397914886E-2
3.027913979E0,8.869171143E-3,3.193408251E-3,-7.488727570E-2
3.037984779E0,2.177548409E-2,-1.131829619E-2,-2.660083771E-2
3.048055580E0,2.765774727E-2,-1.881721616E-2,2.317905426E-2
3.058126381E0,4.312562943E-2,-3.842097521E-2,2.955055237E-2
3.068197182E0,5.132067204E-2,-4.863499105E-2,7.435798645E-3
3.078267983E0,2.179706097E-2,-2.793455124E-2,-2.372741699E-2
3.088369301E0,-7.134795189E-3,-1.919409633E-2,-2.371597290E-2
3.098440102E0,-4.095399380E-2,-8.313596249E-3,-2.592182159E-2
3.108510903E0,-5.112016201E-2,4.844665527E-4,-3.276538849E-2
3.118581703E0,-4.724824429E-2,-7.407516241E-3,-3.707408905E-2
3.128652504E0,-3.909003735E-2,-8.020669222E-3,-3.655052185E-2
3.138723305E0,-3.601670265E-2,-1.351349056E-2,-2.650928497E-2
3.148794106E0,-1.641857624E-2,-2.368481457E-2,-4.810333252E-3
3.158895424E0,1.006519794E-2,-1.959219575E-2,2.120971680E-2
3.168966225E0,2.229583263E-2,-1.132267714E-2,3.731155396E-2
3.179037026E0,1.565277576E-2,3.951013088E-3,1.172275543E-1
3.189107826E0,1.422619820E-2,3.540745378E-2,7.017898560E-2
3.199178627E0,1.311993599E-2,4.034583271E-2,3.563499451E-2
3.209249428E0,1.202940941E-2,4.056409001E-2,-6.380081177E-4
3.219320229E0,-3.090739250E-3,4.575079679E-2,-4.116249084E-2
3.229421547E0,-8.548498154E-3,3.684931993E-2,-7.621097565E-2
3.239492348E0,-1.862287521E-3,3.747214377E-2,-7.991790771E-2
3.249563149E0,1.179087162E-2,1.468147337E-2,-6.230640411E-2
3.259633949E0,8.504152298E-3,-5.277648568E-3,-1.895809174E-2
3.269704750E0,2.658677101E-2,-3.221566975E-2,1.176929474E-2
3.279775551E0,2.782857418E-2,-4.236465693E-2,1.740455627E-3
3.289876869E0,3.600871563E-2,-4.303266108E-2,6.239891052E-3
3.299947670E0,3.190410137E-2,-5.090756714E-2,-1.180648804E-3
3.310018471E0,8.869647980E-3,-3.309732676E-2,-8.463859558E-3
3.320089272E0,-1.743316650E-3,-2.963913977E-2,-3.219890594E-2
3.330160072E0,-3.199100494E-3,-2.154698968E-2,-3.882503510E-2
3.340230873E0,-5.156993866E-3,-8.716553450E-3,-3.589439392E-2
3.350301674E0,2.193450928E-3,-2.690781653E-2,-9.369850159E-3
3.360402992E0,9.366750717E-3,-3.077059984E-2,-9.251594543E-3
3.370473793E0,2.586412430E-2,-3.245177865E-2,-6.777763367E-3
3.380544594E0,1.607549191E-2,-2.469287813E-2,5.157470703E-3
3.390615395E0,3.744113445E-2,-1.477411389E-2,3.094482422E-2
3.400686195E0,3.971707821E-2,-5.173087120E-3,3.745841980E-2
3.410756996E0,3.063404560E-2,1.126229763E-2,3.907585144E-2
3.420827797E0,-6.635189056E-3,1.344613731E-2,5.017089844E-2
3.430929115E0,-5.583763123E-4,1.555414498E-2,4.197025299E-2
3.440999916E0,3.041863441E-3,1.088470221E-3,1.737308502E-2
3.451070717E0,-1.249790192E-2,-5.987435579E-3,-4.337310791E-3
3.461141518E0,-1.132273674E-2,-8.146792650E-3,-1.148509979E-2
3.471212319E0,-1.711940765E-2,-3.065884113E-3,-2.805805206E-2
3.481283119E0,-1.366937160E-2,-5.074694753E-3,-4.188346863E-2
3.491384438E0,-1.977205276E-2,-2.309709787E-3,-3.887844086E-2
3.501455238E0,-1.393115520E-2,5.183666945E-3,-4.069042206E-2
3.511526039E0,-8.222699165E-3,1.482132077E-2,-2.356529236E-2
3.521596840E0,-9.933829308E-3,1.961095631E-2,-9.095191956E-3
3.531667641E0,-9.167194366E-5,1.019713283E-2,1.224136353E-2
3.541738442E0,2.358675003E-3,7.975980639E-3,2.545356750E-3
3.551809242E0,7.212400436E-3,-3.724038601E-3,-1.404476166E-2
3.561910561E0,9.590148926E-3,-1.972283423E-2,-4.368782043E-3
3.571981361E0,-2.651095390E-3,-1.902095973E-2,-1.831054688E-3
3.582052162E0,-2.830028534E-3,-2.563090622E-2,7.714271545E-3
3.592122963E0,4.285812378E-3,-3.459165990E-2,2.178668976E-2
3.602193764E0,6.398797035E-3,-3.163896501E-2,2.854061127E-2
3.612264565E0,1.555752754E-2,-1.945987344E-2,3.757190704E-2
3.622335365E0,1.522731781E-2,-1.462580264E-2,2.748966217E-2
3.632436684E0,5.476832390E-3,-1.463495195E-2,1.041889191E-2
3.642507485E0,5.213022232E-4,-1.222905517E-2,-1.529693604E-3
3.652578285E0,2.869129181E-3,-1.439081132E-2,-1.539230347E-3
3.662649086E0,-4.142403603E-3,-1.901017129E-2,-6.297111511E-3
3.672719887E0,-1.108920574E-2,-2.358043194E-2,1.748657227E-2
3.682790688E0,-8.670687675E-3,-1.860655844E-2,2.428436279E-2
3.692861488E0,-6.362199783E-3,-2.107888460E-3,2.155780792E-2
3.702962807E0,-8.702635765E-3,-2.356424928E-3,2.359104156E-2
3.713033608E0,5.414485931E-4,-2.720624208E-3,2.796840668E-2
3.723104408E0,2.556085587E-3,4.067838192E-3,2.515602112E-2
3.733175209E0,2.527236938E-5,6.027951837E-3,1.291179657E-2
3.743246010E0,9.276151657E-3,5.484789610E-3,1.746082306E-2
3.753316811E0,2.003669739E-3,7.475256920E-3,1.718521118E-2
3.763387611E0,1.797556877E-3,7.126837969E-3,2.164173126E-2
3.773488930E0,1.625776291E-3,1.149527729E-2,1.655387878E-2
3.783559731E0,-5.689382553E-3,2.550719678E-2,1.867389679E-2
3.793630531E0,3.789305687E-3,8.351668715E-3,2.309989929E-2
3.803701332E0,1.336824894E-2,1.292377710E-2,3.691864014E-2
3.813772133E0,8.715987206E-3,1.028557122E-2,3.392505646E-2
3.823842934E0,1.831579208E-2,5.332037807E-3,2.621841431E-2
3.833913735E0,2.089679241E-2,7.701098919E-3,1.152992249E-2
3.844015053E0,1.631057262E-2,-1.950651407E-3,8.866310120E-3
3.854085854E0,2.413034439E-3,-6.658270955E-3,3.954887390E-3
3.864156654E0,6.607770920E-4,-1.598463953E-2,-5.640029907E-3
3.874227455E0,3.434300423E-3,-1.084770262E-2,3.838539124E-3
3.884298256E0,-1.079916954E-3,-1.058258116E-2,1.360893250E-3
3.894369057E0,6.362915039E-3,-5.468219519E-3,-3.473281860E-3
3.904439858E0,-5.550384521E-4,1.916274428E-3,-1.098632812E-3
3.914541176E0,-5.183815956E-3,-5.050599575E-3,-1.290702820E-2
3.924611977E0,2.125024796E-3,2.300322056E-3,6.175994873E-3
3.934682778E0,2.122402191E-3,-2.340897918E-3,6.066322327E-3
3.944753578E0,4.303336143E-3,-2.283811569E-3,5.944252014E-3
3.954824379E0,-7.429122925E-4,2.579256892E-3,3.463745117E-3
3.964895180E0,-1.115798950E-3,2.614080906E-3,-1.304340363E-2
3.974996498E0,1.023197174E-2,-4.418864846E-3,-5.599021912E-3
3.985067299E0,9.827375412E-3,-1.359306276E-2,2.049350739E-2
3.995138100E0,1.414597034E-2,5.719497800E-3,3.676986694E-2
4.005208901E0,6.635904312E-3,-3.757715225E-3,3.613471985E-2
4.015279701E0,1.334488392E-2,-1.363977790E-3,2.377510071E-2
4.025350502E0,-3.696918488E-3,-3.827571869E-3,2.583312988E-2
4.035421303E0,7.401704788E-4,-1.510694623E-3,3.257179260E-2
4.045522621E0,2.786874771E-3,-8.530735970E-3,3.917789459E-2
4.055593422E0,9.480118752E-3,-3.815785050E-3,4.805660248E-2
4.065664223E0,1.167893410E-2,-1.550391316E-3,2.829933167E-2
4.075735024E0,1.164865494E-2,-1.591593027E-2,1.835536957E-2
4.085805824E0,1.636958122E-2,-2.050115168E-2,2.986717224E-2
4.095876625E0,2.354311943E-2,-8.389905095E-3,3.167533875E-2
4.105977944E0,1.179242134E-2,5.794316530E-3,9.775161743E-3
4.116048744E0,7.459998131E-3,8.790493011E-4,-4.705429077E-3
4.126119545E0,-4.154920578E-3,5.600243807E-3,-7.028579712E-3
4.136190346E0,-8.399367332E-3,-1.910820603E-3,7.183074951E-3
4.146261147E0,-1.034283638E-2,1.222559810E-2,6.988525391E-3
4.156331947E0,4.065275192E-3,9.603723884E-3,2.109527588E-3
4.166402748E0,1.114106178E-2,7.059648633E-3,-3.051757812E-4
4.176504067E0,6.302952766E-3,7.016599178E-3,-5.730438232E-2
4.186574867E0,2.053129673E-2,-7.851421833E-5,-3.738594055E-2
4.196645668E0,1.809763908E-2,-4.707083106E-3,-1.388549805E-3
4.206716469E0,2.277290821E-2,-2.199217677E-3,2.935409546E-2
4.216787270E0,2.497708797E-2,-1.399873197E-2,3.580951691E-2
4.226858070E0,1.777255535E-2,-1.151800156E-2,4.698562622E-2
4.236928871E0,8.324146271E-3,-8.979454637E-3,5.086135864E-2
4.247030190E0,5.905508995E-3,-4.249632359E-3,2.635574341E-2
4.257100990E0,1.532924175E-2,-1.123219728E-2,7.044792175E-3
4.267171791E0,5.658864975E-3,-4.006877542E-3,-3.089427948E-2
4.277242592E0,8.969306946E-4,-8.669108152E-3,-6.120872498E-2
4.287313393E0,8.143305779E-3,-1.454830170E-3,-1.975917816E-2
4.297384194E0,8.040904999E-3,8.493810892E-4,8.918762207E-3
4.307454994E0,-3.847241402E-3,-1.659438014E-3,1.345062256E-2
4.317556313E0,-6.291031837E-3,5.365237594E-3,8.527755737E-3
4.327627113E0,-1.597285271E-3,1.223793626E-2,1.339912415E-3
4.337697914E0,6.201267242E-4,7.263273001E-3,1.353263855E-3
4.347768715E0,5.270242691E-4,1.199570298E-2,-3.382682800E-3
4.357839516E0,-6.751418114E-3,4.850462079E-3,1.402854919E-3
4.367910317E0,7.394671440E-3,-2.208739519E-3,6.149291992E-3
4.377981117E0,7.123112679E-3,-4.423052073E-3,1.316356659E-2
4.388051918E0,1.405000687E-2,2.780586481E-3,1.048564911E-2
4.398153236E0,1.142203808E-2,-1.974165440E-3,1.740169525E-2
4.408224037E0,1.604473591E-2,-8.891910315E-3,2.177429199E-2
4.418294838E0,1.600468159E-2,-1.696929336E-3,1.431655884E-2
4.428365639E0,-2.925753593E-3,3.164544702E-3,1.401424408E-2
4.438436440E0,9.150981903E-3,-3.960743546E-3,3.268241882E-2
4.448507240E0,1.155960560E-2,-8.674621582E-3,3.682422638E-2
4.458578041E0,2.110576630E-2,-3.728836775E-3,2.435588837E-2
4.468679360E0,1.629853249E-2,-1.326090097E-2,9.796142578E-3
4.478750160E0,-2.647399902E-3,-1.298666000E-2,2.509117126E-3
4.488820961E0,-4.704475403E-3,-7.985457778E-3,2.389907837E-3
4.498891762E0,1.221501827E-2,-3.118157387E-3,8.583068848E-6
4.508962563E0,1.692867279E-2,4.185840487E-3,-2.398490906E-3
4.519033363E0,9.745121002E-3,-1.234038174E-2,-3.337860107E-5
4.529134682E0,9.780883789E-3,-1.210539043E-2,-9.059906006E-5
4.539205483E0,-6.694078445E-3,-9.478330612E-3,7.008552551E-3
4.549276283E0,4.341602325E-4,-1.173625886E-2,9.320259094E-3
4.559347084E0,4.986166954E-3,1.780688763E-4,6.797790527E-3
4.569417885E0,9.569406509E-3,7.035627961E-3,-7.554054260E-3
4.579488686E0,4.706382751E-3,7.012456656E-3,-9.730339050E-3
4.589535217E0,9.182810783E-3,-2.280026674E-4,1.644897461E-2
4.599636536E0,4.293560982E-3,1.387213171E-2,2.324676514E-2
4.609707337E0,-7.503867149E-3,1.908659935E-3,1.343250275E-2
4.619778137E0,-7.469177246E-3,-2.985477448E-3,8.470535278E-3
4.629848938E0,9.191513062E-3,1.736238599E-3,2.251338959E-2
4.639919739E0,-2.660870552E-3,-3.189459443E-3,3.157711029E-2
4.649990540E0,-2.715945244E-3,1.531943679E-3,2.159500122E-2
4.660061341E0,-2.739071846E-3,-7.917448878E-3,2.127170563E-2
4.670162659E0,-7.232308388E-3,-3.046989441E-3,1.150989532E-2
4.680233460E0,9.526133537E-3,-2.996847034E-3,1.370716095E-2
4.690304260E0,1.182508469E-2,-7.754132152E-3,1.582431793E-2
4.700375061E0,7.094264030E-3,-7.716029882E-3,1.319885254E-2
4.710445862E0,9.341359138E-3,-6.824284792E-4,1.296901703E-2
4.720516663E0,1.394844055E-2,6.306484342E-3,7.994651794E-3
4.730617981E0,1.616716385E-2,-3.136411309E-3,-3.998756409E-3
4.740688782E0,1.119828224E-2,3.982841969E-3,-1.100444794E-2
4.750759583E0,6.288290024E-3,1.579138637E-2,-3.700256348E-3
4.760830384E0,3.917813301E-3,1.412004232E-3,8.213996887E-3
4.770901184E0,-1.121878624E-3,6.238326430E-3,-1.371383667E-3
4.780971985E0,8.317947388E-3,3.919228911E-3,8.048057556E-3
4.791042786E0,9.773969650E-4,-3.119662404E-3,7.904052734E-3
4.801144104E0,7.819652557E-3,-5.389451981E-4,3.066062927E-3
4.811214905E0,2.191615105E-2,1.947432756E-3,1.481151581E-2
4.821285706E0,9.976983070E-3,-1.222534478E-2,1.691150665E-2
4.831356507E0,1.440095901E-2,-1.196026802E-2,1.431274414E-2
4.841427307E0,1.900768280E-2,-7.168814540E-3,7.002830505E-3
4.851498108E0,1.660239697E-2,-1.186096668E-2,-2.841949463E-4
4.861568909E0,1.180016994E-2,-2.036556602E-3,4.402160645E-3
4.871670227E0,9.323835373E-3,-1.144330204E-2,-3.852844238E-4
4.881741028E0,2.171158791E-3,-2.072153986E-2,1.936912537E-3
4.891811829E0,-9.639739990E-3,-1.097434759E-2,4.326820374E-3
4.901882630E0,-4.705071449E-3,-1.451611519E-3,1.907348633E-3
4.911953430E0,-1.163268089E-2,-1.439735293E-3,4.258155823E-3
4.922024231E0,-4.364013672E-3,-1.376688480E-3,6.575584412E-3
4.932095032E0,-4.382967949E-3,-1.314714551E-3,1.596355438E-2
4.942196350E0,-2.016425133E-3,-5.970045924E-3,-8.583068848E-4
4.952267151E0,7.485270500E-3,-1.295556128E-2,-1.264095306E-2
4.962337952E0,1.439738274E-2,-1.516804099E-2,-5.291938782E-3
4.972408753E0,9.407520294E-3,-5.504563451E-3,6.658554077E-3
4.982479553E0,-4.935622215E-3,-7.817164063E-3,8.919715881E-3
4.992550354E0,-7.939338684E-5,-7.707282901E-3,6.363868713E-3
5.002621155E0,2.360820770E-3,-7.667049766E-3,1.333808899E-2
5.012722473E0,7.191181183E-3,1.918755472E-3,1.072216034E-2
5.022793274E0,9.541630745E-3,-6.509125233E-4,1.525688171E-2
5.032864075E0,1.188015938E-2,6.423756480E-3,5.583763123E-3
5.042934876E0,4.701495171E-3,-7.988706231E-3,-1.600265503E-3
5.053005676E0,7.089972496E-3,3.781318665E-3,7.743835449E-4
5.063076477E0,-2.404689789E-3,-8.254066110E-3,7.845878601E-3
5.073147278E0,1.657903194E-2,-1.534265280E-2,2.981185913E-3
5.083248596E0,9.227514267E-3,-1.755510271E-2,2.927780151E-3
5.093319397E0,9.003400803E-3,-5.496151745E-3,5.149841309E-4
5.103390198E0,6.510972977E-3,-7.958777249E-3,2.897262573E-3
5.113460999E0,-1.006758213E-2,-7.125288248E-4,5.191802979E-3
5.123531800E0,4.516959190E-3,-1.018449664E-2,9.813308716E-3
5.133602600E0,6.884694099E-3,-7.541261613E-3,2.525329590E-3
5.143673401E0,6.832957268E-3,-1.670666039E-2,-6.954193115E-3
5.153774719E0,-9.804129601E-3,-9.239949286E-3,7.349967957E-3
5.163845520E0,-7.142663002E-3,-4.323959351E-3,8.869171143E-5
5.173916321E0,-4.494905472E-3,4.275590181E-4,-2.327919006E-3
5.183987122E0,-4.266381264E-3,5.222678185E-3,3.527545929E-2
5.194057923E0,-8.923292160E-3,4.982501268E-4,1.815986633E-2
5.204128723E0,7.882118225E-3,-6.506912410E-3,-5.817413330E-3
5.214199524E0,1.967215538E-2,6.564110518E-4,-2.230739594E-2
5.224300842E0,7.629632950E-3,7.653601468E-3,-4.557037354E-2
5.234371643E0,2.829909325E-3,1.460980624E-2,-4.718303680E-2
5.244442444E0,5.312800407E-3,2.637363970E-3,-2.517509460E-2
5.254513245E0,-4.073619843E-3,2.603456378E-4,-8.212089539E-3
5.264584046E0,-1.598238945E-3,4.899993539E-3,6.055831909E-3
5.274654846E0,5.598545074E-3,-6.989017129E-3,1.772594452E-2
5.284725647E0,3.373980522E-3,4.977017641E-3,2.670860291E-2
5.294826966E0,-3.535032272E-3,1.380592585E-4,7.351875305E-3
5.304897766E0,-3.412485123E-3,-7.078893483E-3,4.841804504E-3
5.314968567E0,-8.968114853E-4,-1.189467311E-2,4.770278931E-3
5.325039368E0,6.367564201E-3,-1.187076420E-2,4.660606384E-3
5.335110169E0,1.613974571E-3,2.640485764E-5,-1.201629639E-4
5.345180969E0,1.114892960E-2,-1.429969817E-2,2.237319946E-3
5.355282288E0,3.975272179E-3,-1.193861663E-2,2.210617065E-3
5.365353089E0,-3.173708916E-3,-7.127761841E-3,-4.944801331E-3
5.375423889E0,-5.484461784E-3,4.678897560E-3,4.595756531E-3
5.385494690E0,1.683712006E-3,6.775937974E-3,1.158618927E-2
5.395565491E0,8.759975433E-3,1.104630530E-2,2.085685730E-2
5.405636292E0,3.834605217E-3,-1.177579165E-3,-6.952285767E-4
5.415707092E0,1.299488544E-2,-8.324697614E-3,-6.084442139E-4
5.425808411E0,2.922737598E-2,5.928367376E-3,-7.685661316E-3
5.435879212E0,2.654922009E-2,-8.361428976E-3,-1.230239868E-2
5.445950012E0,2.612078190E-2,-9.901225567E-4,2.109527588E-3
5.456020813E0,2.107775211E-2,-5.532652140E-3,1.158809662E-2
5.466091614E0,6.788253784E-3,-1.708349586E-2,1.606750488E-2
5.476162415E0,1.644444466E-2,-1.208864897E-2,1.104545593E-2
5.486233216E0,2.115011215E-3,-1.416989416E-2,-9.756088257E-4
5.496334534E0,-7.152557373E-5,-4.452355206E-3,1.408576965E-3
5.506405335E0,-2.159476280E-3,-6.794199347E-3,-3.369331360E-3
5.516476135E0,-1.145279408E-2,-1.382502168E-2,-8.104324341E-3
5.526546936E0,-6.387472153E-3,5.230903625E-4,-9.145736694E-4
5.536617737E0,8.376836777E-4,3.838092089E-4,-3.277778625E-3
5.546688538E0,-1.480340958E-3,2.586022019E-4,-8.506774902E-4
5.556759339E0,-6.297111511E-3,3.051906824E-4,-8.459091187E-4
5.566860657E0,-6.102323532E-3,2.663530409E-3,1.520156860E-3
5.576931458E0,3.462314606E-3,4.994481802E-3,-7.945060730E-3
5.587002259E0,-1.086127758E-2,1.447275281E-4,1.702308655E-3
5.597073059E0,-3.776550293E-3,-4.573747516E-3,1.693725586E-3
5.607143860E0,3.382563591E-3,-1.397744566E-2,4.031181335E-3
5.617214661E0,5.631923676E-3,4.010424018E-4,6.371498108E-3
5.627285462E0,1.264345646E-2,5.066476762E-3,6.241798401E-3
5.637386780E0,7.330179214E-4,-4.509076476E-3,3.769874573E-3
5.647457581E0,-8.658766747E-3,2.616830170E-3,-3.433227539E-3
5.657528382E0,-1.562190056E-2,-4.625201225E-3,3.714561462E-3
5.667599182E0,6.061792374E-3,2.490863204E-3,1.073265076E-2
5.677669983E0,3.566861153E-3,1.194413006E-2,1.762485504E-2
5.687740784E0,-1.325130463E-3,7.115148008E-3,7.867813110E-3
5.697811585E0,-6.034851074E-3,7.059380412E-3,6.265640259E-4
5.707912903E0,-6.083607674E-3,4.684075713E-3,5.337715149E-3
5.717983704E0,-1.309633255E-3,6.170570850E-5,5.209922791E-3
5.728054505E0,-5.885004997E-3,2.584204078E-3,1.925945282E-2
5.738125305E0,-5.613207817E-3,5.213923752E-3,2.133083344E-2
5.748196106E0,4.036426544E-3,3.064751625E-3,1.386547089E-2
5.758266907E0,4.214644432E-3,1.010507345E-3,2.069282532E-2
5.768337708E0,-4.860639572E-3,3.772921860E-3,1.085186005E-2
5.778439026E0,4.798173904E-4,-1.252207905E-2,5.857467651E-3
5.788509827E0,1.743602753E-2,-1.909762621E-2,8.034706116E-3
5.798580628E0,1.550245285E-2,-6.639868021E-3,7.162094116E-4
5.808651428E0,1.126790047E-2,-6.392650306E-3,-8.906364441E-3
5.818722229E0,9.463191032E-3,8.061528206E-3,-1.596355438E-2
5.828793030E0,1.240944862E-2,5.595169961E-3,-1.581573486E-2
5.838863831E0,8.299708366E-3,-6.277300417E-3,-1.330184937E-2
5.848965149E0,1.675248146E-3,-1.100376993E-2,-1.285552979E-3
5.859035950E0,-2.686262131E-3,-6.199792027E-3,1.993560791E-2
5.869106751E0,4.842162132E-3,-2.047271281E-2,2.896308899E-2
5.879177551E0,1.482188702E-2,-1.110534370E-2,1.186370850E-2
5.889248352E0,1.545023918E-2,-8.933976293E-3,6.874084473E-3
5.899319153E0,1.106929779E-2,-1.620761305E-2,2.561855316E-2
5.909389954E0,1.406884193E-2,-1.895100623E-2,3.685283661E-2
5.919491272E0,2.430939674E-2,-1.485428214E-2,2.897357941E-2
5.929562073E0,2.521181107E-2,-1.799339056E-2,4.618644714E-3
5.939632874E0,1.200902462E-2,-2.099718899E-2,1.147079468E-2
5.949703675E0,1.427888870E-3,-1.707907021E-2,-7.534027100E-4
5.959774475E0,2.861738205E-3,-2.040208876E-2,-2.930545807E-2
5.969845276E0,-6.445646286E-4,-1.672285795E-2,-4.544925690E-2
5.979946594E0,-6.602048874E-3,-1.293203235E-2,-3.774261475E-2
5.990017395E0,-7.920503616E-3,-1.641719043E-2,-2.542686462E-2
6.000088196E0,-1.401245594E-2,-5.834072828E-3,-2.982711792E-2
6.010158997E0,-8.246898651E-3,-4.881232977E-3,-5.067253113E-2
6.020229798E0,1.801729202E-3,-1.817822456E-2,-5.932807922E-2
6.030300598E0,1.392924786E-2,-7.656633854E-3,-4.183864594E-2
6.040371399E0,3.038430214E-2,-6.822437048E-3,-1.745796204E-2
6.050472717E0,2.533578873E-2,-1.091268659E-2,1.121139526E-2
6.060543518E0,2.497828007E-2,-1.505739987E-2,2.046489716E-2
6.070614319E0,3.641080856E-2,-9.934753180E-3,5.910873413E-3
6.080685120E0,2.898406982E-2,-1.435588300E-2,-5.966186523E-3
6.090755921E0,4.288303852E-2,-1.632830501E-2,-1.532554626E-2
6.100826721E0,3.289389610E-2,-1.833866537E-2,-1.268959045E-2
6.110897522E0,2.098309994E-2,-1.794385910E-2,-1.482868195E-2
6.120998841E0,2.177357674E-3,-3.185997903E-2,-1.935577393E-2
6.131069641E0,-2.093315125E-3,-2.223739028E-2,-3.563594818E-2
6.141140442E0,-1.832640171E-2,-2.476179600E-2,-5.160617828E-2
6.151211243E0,-1.050269604E-2,-1.547987759E-2,-5.549526215E-2
6.161282044E0,-8.721351624E-4,-1.575998962E-2,-1.668930054E-2
6.171352844E0,1.086366177E-2,-1.130817831E-2,1.204967499E-2
6.181423645E0,1.775288582E-2,-3.325331211E-2,-3.761577606E-2
6.191524964E0,1.753973961E-2,-6.206916273E-2,-1.328277588E-2
6.201595764E0,1.019108295E-2,-8.359509706E-2,2.487564087E-2
6.211666565E0,1.698744297E-2,-4.840096831E-2,7.178020477E-2
6.221737366E0,1.693260670E-2,-1.663728058E-2,7.531738281E-2
6.231808167E0,1.722526550E-2,-4.493221641E-3,5.978965759E-2
6.241878967E0,5.732893944E-3,3.063663840E-2,9.123802185E-3
6.251980286E0,8.332967758E-3,2.986374497E-2,-4.055881500E-2
6.262051087E0,1.116991043E-3,2.229939401E-2,-4.679775238E-2
6.272121887E0,1.273286343E-2,-3.866598010E-3,-5.297756195E-2
6.282192688E0,1.034522057E-2,-2.248634398E-2,-1.109161377E-1
6.292263489E0,-1.302552223E-2,-2.686408162E-2,-4.295635223E-2
6.302334290E0,-2.689874172E-2,-3.621877730E-2,-2.791023254E-2
6.312405091E0,-3.876686096E-2,-6.446869671E-2,1.188278198E-3
6.322506409E0,-3.246331215E-2,-7.638569176E-2,5.591392517E-2
6.332577210E0,-2.375805378E-2,-6.527854502E-2,9.075450897E-2
6.342648010E0,-2.897024155E-3,-4.110339284E-2,6.579685211E-2
6.352718811E0,3.647565842E-3,-8.623257279E-3,-8.335113525E-3
6.362789612E0,2.159202099E-2,3.991693258E-3,-6.449794769E-2
6.372860413E0,3.393030167E-2,-2.474188805E-4,-5.817127228E-2
6.382931214E0,2.426803112E-2,-2.833136916E-2,-1.884555817E-2
6.393002014E0,-4.175186157E-3,-6.145614386E-2,-1.325607300E-2
6.403103333E0,-8.178114891E-3,-6.404176354E-2,-3.376197815E-2
6.413174134E0,-2.364599705E-2,-6.469482183E-2,-7.515716553E-2
6.423244934E0,-3.245019913E-2,-5.590316653E-2,-1.110315323E-1
6.433315735E0,-1.605808735E-2,-4.702958465E-2,-9.643936157E-2
6.443386536E0,-1.275789738E-2,-4.038238525E-2,-3.946208954E-2
6.453457337E0,-2.251029015E-3,-2.675503492E-2,-1.186275482E-2
6.463528137E0,3.467619419E-2,3.191494942E-2,-2.027225494E-2
6.473629456E0,5.734705925E-2,5.218002200E-2,-5.455303192E-2
6.483700257E0,8.109831810E-2,4.739171267E-2,-4.080104828E-2
6.493771057E0,1.033649445E-1,2.933391929E-2,4.380798340E-2
6.503841858E0,6.880760193E-2,4.714578390E-3,1.386060715E-1
6.513912659E0,-4.241466522E-3,-4.889839888E-2,1.347084045E-1
6.523983460E0,-2.849102020E-2,-8.629593253E-2,6.480216980E-2
6.534084778E0,-6.896543503E-2,-8.383634686E-2,-2.508735657E-2
6.544155579E0,-5.928790569E-2,4.784166813E-4,-6.381511688E-2
6.554226380E0,-3.350400925E-2,7.149666548E-2,-5.451107025E-2
6.564297180E0,-2.540099621E-2,9.693464637E-2,-2.155208588E-2
6.574367981E0,2.905333042E-2,9.834378958E-2,4.638957977E-2
6.584438782E0,2.599048615E-2,6.170824170E-2,5.166149139E-2
6.594509583E0,2.359712124E-2,2.556154132E-2,2.378463745E-3
6.604610901E0,7.065784931E-2,-2.872443199E-2,-4.122066498E-2
6.614681702E0,7.602822781E-2,-7.271009684E-2,-1.310157776E-2
6.624752503E0,-5.446314812E-3,-1.167342067E-1,2.626419067E-3
6.634823303E0,-6.287336349E-2,-1.445274949E-1,-6.710433960E-2
6.644894104E0,-8.245313168E-2,-1.443738341E-1,-1.378383636E-1
6.654964905E0,-4.124021530E-2,-3.271079063E-2,-1.195774078E-1
6.665035706E0,1.756346226E-2,7.100993395E-2,1.896476746E-2
6.675137024E0,2.834308147E-2,8.366125822E-2,1.786479950E-1
6.685207825E0,5.838751793E-3,3.240668774E-2,2.433643341E-1
6.695278626E0,-8.150219917E-3,-6.862401962E-3,1.580448151E-1
6.705349426E0,-6.970405579E-3,-2.002370358E-2,-2.753162384E-2
6.715420227E0,2.701306343E-2,5.028843880E-3,-1.482734680E-1
6.725491028E0,4.058814049E-2,4.325032234E-3,-1.014251709E-1
6.735561829E0,3.781557083E-2,8.668965101E-2,1.056766510E-2
6.745663147E0,4.356849194E-2,2.222051024E-1,-1.196098328E-2
6.755733948E0,6.801974773E-2,1.498756409E-1,1.327991486E-2
6.765804749E0,5.090641975E-2,1.280809641E-1,1.302213669E-1
6.775875550E0,4.865801334E-2,1.050407290E-1,1.503610611E-1
6.785946350E0,5.221486092E-3,3.865319490E-2,1.108016968E-1
6.796017151E0,-3.767633438E-2,7.247400284E-2,3.417110443E-2
6.806087952E0,-2.497851849E-2,1.797082424E-1,-5.075263977E-2
6.816189270E0,-5.200266838E-3,1.712912321E-1,-2.084255219E-2
6.826260071E0,-9.310603142E-3,1.780408621E-1,5.800437927E-2
6.836330872E0,-1.721501350E-2,1.999598145E-1,1.045627594E-1
6.846401673E0,-9.809255600E-3,2.178755403E-1,6.730842590E-2
6.856472473E0,-1.208233833E-2,8.809888363E-2,1.134767532E-1
6.866543274E0,-4.874348640E-3,8.787149191E-2,1.846342087E-1
6.876614075E0,2.480661869E-2,9.445631504E-2,9.133338928E-2
6.886715393E0,1.915538311E-2,6.412833929E-2,3.747558594E-2
6.896786194E0,5.249977112E-3,4.663091898E-2,7.199859619E-2
6.906856995E0,1.372742653E-2,2.228254080E-2,6.313705444E-2
6.916927796E0,1.988530159E-3,6.962585449E-2,-7.349491119E-2
6.926998596E0,-7.975220680E-3,6.787359715E-2,-1.554679871E-1
6.937069397E0,-1.653015614E-2,4.199147224E-2,-3.280162811E-2
6.947140198E0,-2.430689335E-2,5.496728420E-2,-3.332805634E-2
6.957241516E0,-2.676486969E-2,1.199066639E-3,-1.495990753E-1
6.967312317E0,-3.823196888E-2,-5.940109491E-2,-1.453666687E-1
6.977383118E0,-2.220785618E-2,-1.071380973E-1,-9.629154205E-2
6.987453919E0,-1.721107960E-2,-1.095033884E-1,-1.309165955E-1
6.997524719E0,-1.720547676E-2,-4.819154739E-2,-1.860675812E-1
7.007595520E0,-1.580369473E-2,1.958888769E-2,-1.171360016E-1
7.017666321E0,-5.344629288E-3,6.556594372E-2,9.583473206E-3
7.027767639E0,2.837657928E-3,8.257651329E-2,2.058506012E-2
7.037838440E0,-7.905364037E-3,7.422018051E-2,-2.999591827E-2
7.047909241E0,-1.453566551E-2,2.923196554E-2,-3.885269165E-3
7.057980042E0,-9.970188141E-3,-4.119014740E-2,5.016994476E-2
7.068050842E0,-4.829525948E-3,-6.645649672E-2,-2.450466156E-2
7.078121643E0,-1.103210449E-2,-5.098515749E-2,-1.568737030E-1
7.088192444E0,-2.511465549E-2,-3.258436918E-2,-1.425704956E-1
7.098293762E0,-2.807271481E-2,-1.443988085E-2,1.333713531E-2
7.108364563E0,-2.308356762E-2,-1.814973354E-2,1.427888870E-1
7.118435364E0,-1.076340675E-3,-1.797771454E-2,1.707468033E-1
7.128506165E0,2.752888203E-2,-4.660785198E-2,1.510820389E-1
7.138576966E0,6.337249279E-2,-1.351606846E-2,1.197938919E-1
7.148647766E0,9.988617897E-2,3.087592125E-2,6.051635742E-2
7.158718567E0,1.155070066E-1,9.895032644E-2,4.428863525E-3
7.168819885E0,9.353446960E-2,1.148596108E-1,1.541042328E-2
7.178890686E0,5.549919605E-2,9.357348084E-2,8.287429810E-2
7.188961487E0,3.978097439E-2,4.925239086E-2,9.929752350E-2
7.199032288E0,1.754033566E-2,-1.127257943E-2,3.043270111E-2
7.209103089E0,5.402565002E-3,-5.915367603E-2,-3.246688843E-2
7.219173889E0,9.563565254E-3,-9.660339355E-2,-2.805614471E-2
7.229275208E0,3.925085068E-3,-9.565165639E-2,-2.426147461E-3
7.239346009E0,-8.832693100E-3,-9.484517574E-2,-2.929019928E-2
7.249416809E0,-1.644825935E-2,-8.716255426E-2,-9.110260010E-2
7.259487610E0,-5.270802975E-2,-6.059083343E-2,-1.540727615E-1
7.269558411E0,-5.357182026E-2,-4.593232274E-2,-1.189517975E-1
7.279629212E0,-4.306674004E-2,-3.605329990E-2,-8.484840393E-3
7.289700012E0,-1.180624962E-2,-1.924467087E-2,4.561233521E-2
7.299770813E0,1.419878006E-2,-2.418276668E-2,5.864906311E-2
7.309872132E0,3.764939308E-2,-2.692565322E-2,2.882766724E-2
7.319942932E0,2.787864208E-2,-2.051931620E-2,-1.698112488E-2
7.330013733E0,1.327753067E-3,-1.945364475E-2,-4.536914825E-2
7.340084534E0,-3.841161728E-3,-1.396642625E-2,-4.488372803E-2
7.350155335E0,2.492904663E-3,-6.986498833E-3,-5.136966705E-2
7.360226135E0,-3.344893456E-3,4.117295146E-3,-5.055046082E-2
7.370327454E0,9.683728218E-3,-1.383690536E-2,-3.786182404E-2
7.380398255E0,8.130908012E-3,-1.510426402E-2,-8.790969849E-3
7.390469055E0,6.496787071E-3,-2.407673001E-2,1.265907288E-2
7.400539856E0,5.128502846E-3,-2.862448990E-2,5.427360535E-3
7.410610657E0,8.765697479E-3,-1.972377300E-2,2.987861633E-3
7.420681458E0,1.719868183E-2,-1.373471320E-2,2.429008484E-2
7.430752259E0,2.798807621E-2,1.326382160E-3,7.591342926E-2
7.440853577E0,2.723312378E-2,1.085309684E-2,1.265563965E-1
7.450924378E0,2.034735680E-2,2.907678485E-3,9.345722198E-2
7.460995178E0,1.621317863E-2,-1.987078786E-2,1.839637756E-3
7.471065979E0,1.911914349E-2,-4.973505437E-2,-3.378391266E-2
7.481136780E0,5.250966549E-2,-8.189181238E-2,3.061485291E-2
7.491207581E0,9.052097797E-2,-9.752668440E-2,1.551933289E-1
7.501278382E0,6.767058372E-2,-1.091920808E-1,1.898269653E-1
7.511379700E0,6.272900105E-2,-9.948078543E-2,1.104068756E-1
7.521450501E0,3.213655949E-2,-9.053356200E-2,3.935432434E-2
7.531521301E0,1.848065853E-2,-6.836333126E-2,-3.528308868E-2
7.541592102E0,3.266930580E-3,-6.042830646E-3,-2.822875977E-2
7.551662903E0,-2.116322517E-3,-3.410390019E-2,4.005527496E-2
7.561733704E0,-1.499342918E-2,-2.686896175E-2,7.412910461E-2
7.571804505E0,-3.679990768E-3,-3.977060318E-2,-3.626823425E-3
7.581905823E0,5.699992180E-3,-4.566755146E-2,-9.644412994E-2
7.591976624E0,1.929330826E-2,-3.288276494E-2,-6.478023529E-2
7.602047425E0,2.092611790E-2,-1.737152785E-2,1.835632324E-2
7.612118225E0,1.095819473E-2,-3.061091900E-2,8.568668365E-2
7.622189026E0,-1.405119896E-3,-2.983432263E-2,5.268192291E-2
7.632259827E0,1.056790352E-3,-1.004293561E-3,8.483886719E-3
7.642330628E0,-9.697675705E-4,-1.033385843E-2,2.643108368E-2
7.652431946E0,6.527900696E-3,-7.714934647E-3,4.403305054E-2
7.662502747E0,-4.310965538E-3,9.059488773E-3,2.097034454E-2
7.672573548E0,-5.223989487E-3,1.379450411E-2,1.251316071E-2
7.682644348E0,-1.103401184E-2,6.506547332E-3,2.792072296E-2
7.692715149E0,-1.214396954E-2,3.241948783E-2,1.930713654E-2
7.702785950E0,-1.038873196E-2,4.637388885E-2,-3.884983063E-2
7.712856751E0,-2.042782307E-2,3.898964822E-2,-7.471656799E-2
7.722958069E0,-2.833223343E-2,2.709935606E-2,-8.152103424E-2
7.733028870E0,-2.924513817E-2,4.406899959E-2,-7.881069183E-2
7.743099671E0,-4.949700832E-2,1.359698921E-2,-7.843208313E-2
7.753170471E0,-5.820131302E-2,1.429901272E-2,-1.015977859E-1
7.763241272E0,-5.317890644E-2,1.259627938E-2,-1.431055069E-1
7.773312073E0,-6.075119972E-2,6.257034838E-3,-1.506967545E-1
7.783382874E0,-6.443858147E-2,-4.957325757E-3,-1.343441010E-1
7.793484192E0,-5.244708061E-2,1.685619354E-4,-1.204938889E-1
7.803554993E0,-4.373097420E-2,-4.391789436E-3,-1.044645309E-1
7.813625794E0,-2.890372276E-2,-1.395378262E-2,-8.848285675E-2
7.823696594E0,6.351232529E-3,-1.892431825E-2,-4.904842377E-2
7.833767395E0,2.902197838E-2,-2.632264048E-2,-2.919673920E-2
7.843838196E0,5.097258091E-2,-2.898875624E-2,-2.495765686E-3
7.853908997E0,6.296920776E-2,-2.916686982E-2,-6.937026978E-3
7.864010315E0,7.473695278E-2,-4.366232455E-2,-1.881599426E-3
7.874081116E0,6.507396698E-2,-3.664493561E-2,-6.332397461E-3
7.884151917E0,6.759309769E-2,-3.424771875E-2,-1.077079773E-2
7.894222717E0,4.633176327E-2,-4.366695881E-2,8.554458618E-3
7.904293518E0,4.437446594E-2,-3.874994814E-2,2.750205994E-2
7.914364319E0,5.982291698E-2,-2.641460299E-2,1.758861542E-2
7.924435120E0,4.011285305E-2,-2.845019102E-2,1.050691605E-1
7.934536438E0,7.850944996E-2,-8.547504246E-2,2.444868088E-1
7.944607239E0,1.077892780E-1,7.878147066E-3,-1.458997726E-1
7.954678040E0,3.009057045E-2,7.905638218E-2,-9.595298767E-2
7.964748841E0,1.046049595E-2,-6.029596925E-2,3.835382462E-1
7.974819641E0,7.591319084E-2,-2.157308161E-3,2.842979431E-1
7.984890442E0,3.122687340E-2,5.986461043E-2,-2.249631882E-1
7.994961243E0,-2.345526218E-2,1.911899447E-2,-2.965879440E-1
8.005062561E0,-2.501773834E-2,2.206020802E-2,1.273031235E-1
8.015133362E0,-1.091742516E-2,5.377456546E-3,2.566118240E-1
8.025204163E0,-4.072928429E-2,-1.891102642E-2,-9.114933014E-2
8.035274964E0,-2.112126350E-2,-6.792619824E-3,-2.215709686E-1
8.045345764E0,-1.407861710E-3,-1.810669154E-2,-2.638149261E-2
8.055416565E0,-1.033008099E-2,-1.831381023E-2,3.242301941E-2
8.065517884E0,-1.950109005E-2,-1.136932522E-2,-3.704929352E-2
8.075588684E0,2.657771111E-3,-3.905758262E-3,-5.646705627E-3
8.085659485E0,1.061320305E-3,-6.096869707E-3,-3.426551819E-3
8.095730286E0,-8.860826492E-3,6.035283208E-3,-8.879089355E-2
8.105801087E0,-3.802061081E-2,1.354464144E-2,-7.565689087E-2
8.115871887E0,-6.090688705E-2,1.384191215E-2,3.694534302E-3
8.125942688E0,-5.781352520E-2,-2.825282514E-3,5.083847046E-2
8.136013489E0,-4.499137402E-2,6.070986390E-3,-6.361675262E-2
8.146114807E0,-3.610646725E-2,2.698374540E-2,-2.045259476E-1
8.156185608E0,-4.344522953E-2,2.936251462E-3,-1.088457108E-1
8.166256409E0,-5.037617683E-2,-1.235863566E-2,7.028007507E-2
8.176327210E0,-1.818406582E-2,5.343931913E-2,8.331489563E-2
8.186398010E0,-9.605407715E-3,1.248181611E-2,-1.253032684E-2
8.196468811E0,7.858753204E-3,1.415210962E-2,-1.018199921E-1
8.206539612E0,1.372408867E-2,6.100292504E-2,-5.723667145E-2
8.216640930E0,2.036738396E-2,4.611041397E-2,5.719661713E-2
8.226711731E0,1.165616512E-2,4.326600581E-2,1.106739044E-1
8.236782532E0,2.381074429E-2,3.834505379E-2,8.539676666E-2
8.246853333E0,2.944397926E-2,2.416148037E-2,6.125450134E-3
8.256924134E0,3.086638451E-2,1.269014180E-2,-2.214717865E-2
8.266994934E0,3.693306446E-2,1.587190479E-2,2.569675446E-2
8.277065735E0,1.437926292E-2,2.645432949E-3,8.425712585E-3
8.287167053E0,1.792442799E-2,-1.314458251E-2,4.164600372E-2
8.297237854E0,2.138161659E-2,-2.890499681E-2,-3.229713440E-2
8.307308655E0,1.041316986E-2,-2.484613657E-2,-6.922054291E-2
8.317379456E0,1.286268234E-3,-4.422402382E-2,4.106616974E-2
8.327450257E0,1.824557781E-2,-5.000188947E-2,7.837009430E-2
8.337521057E0,2.370977402E-2,-4.713170975E-2,2.523326874E-2
8.347591858E0,7.403135300E-3,-3.794067353E-2,-1.504993439E-2
8.357693176E0,1.214265823E-2,-2.451997250E-2,-4.850387573E-3
8.367763977E0,7.436156273E-3,-8.778057992E-3,2.609252930E-3
8.377834778E0,2.743101120E-2,-9.399451315E-3,-2.799987793E-2
8.387905579E0,2.492785454E-3,-1.658207923E-2,-2.498817444E-2
8.397976380E0,1.949894428E-2,-1.373519003E-2,2.072620392E-2
8.408047180E0,3.690516949E-2,2.062520385E-2,1.198081970E-1
8.418117981E0,-2.722144127E-3,-9.176306427E-3,7.003211975E-2
8.428219300E0,-4.906773567E-3,1.542002708E-2,-5.153751373E-2
8.438290100E0,8.328557014E-3,1.123453677E-2,-1.488876343E-2
8.448360901E0,-8.743047714E-3,1.637388766E-2,5.386352539E-2
8.458431702E0,3.376483917E-3,9.405344725E-3,6.714344025E-2
8.468502503E0,-7.005810738E-3,7.207930088E-3,7.516479492E-2
8.478573303E0,-1.424098015E-2,-9.439542890E-3,1.203632355E-2
8.488644104E0,-2.942562103E-3,-1.718877256E-2,-4.755783081E-2
8.498745423E0,-1.414501667E-2,-3.434449434E-3,-9.392929077E-2
8.508816223E0,-5.052924156E-3,3.372631967E-3,5.438232422E-2
8.518887024E0,2.867424488E-2,-9.345807135E-3,1.692085266E-1
8.528957825E0,-2.377057076E-2,1.427307725E-3,-1.159515381E-1
8.539028626E0,-1.500785351E-2,6.381094456E-3,-2.834310532E-1
8.549099426E0,1.014077663E-2,-1.358836144E-2,1.759719849E-2
8.559170227E0,-1.663124561E-2,-1.550208777E-2,7.117271423E-2
8.569271546E0,-1.773643494E-2,3.472730517E-3,1.608085632E-2
8.579342346E0,3.623604774E-3,-1.055196673E-2,8.263587952E-2
8.589413147E0,2.601575851E-2,8.326284587E-3,1.261711121E-1
8.599483948E0,2.226471901E-3,2.821050584E-3,3.186035156E-2
8.609554749E0,5.094766617E-3,6.862707436E-3,-1.355361938E-2
8.619625550E0,6.252527237E-4,4.166573286E-3,-4.415988922E-2
8.629696350E0,-2.530980110E-2,6.932020187E-3,-5.572319031E-3
8.639797669E0,-2.434527874E-2,-8.955106139E-3,-2.699756622E-2
8.649868469E0,-3.666758537E-3,-1.354612410E-3,-6.880950928E-2
8.659939270E0,1.262843609E-2,1.586621255E-2,-1.086807251E-2
8.670010071E0,7.554292679E-4,4.423625767E-3,-1.277923584E-3
8.680080872E0,2.638816833E-3,1.681247354E-2,-1.294803619E-2
8.690151673E0,-1.493215561E-3,-1.161018014E-2,-7.396602631E-2
8.700222473E0,2.360606194E-2,4.177540541E-5,-6.972599030E-2
8.710323792E0,2.140784264E-2,2.882741392E-2,1.217365265E-2
8.720394592E0,-3.888607025E-4,1.088698953E-2,8.997440338E-2
8.730465393E0,1.458847523E-2,-1.670290530E-2,1.070928574E-1
8.740536194E0,3.898632526E-2,1.669153571E-4,-3.733634949E-3
8.750606995E0,1.037299633E-2,9.834669530E-3,-8.161449432E-2
8.760677796E0,1.963746548E-2,-3.207795322E-3,-4.463577271E-2
8.770779114E0,3.162086010E-2,-2.967410535E-2,4.821586609E-2
8.780849915E0,1.777446270E-2,-2.003046870E-2,2.590656281E-2
8.790920716E0,4.477977753E-3,-2.210190892E-2,-4.535865784E-2
8.800991516E0,5.763888359E-3,-3.091283143E-2,-4.376125336E-2
8.811062317E0,7.049560547E-3,-3.287291154E-2,-4.036521912E-2
8.821133118E0,-8.538603783E-3,-1.656064764E-2,-8.632755280E-2
8.831203919E0,-8.523821831E-3,-1.967957243E-2,-6.040000916E-2
8.841305237E0,1.445281506E-2,8.807338774E-3,1.067066193E-1
8.851376038E0,9.801268578E-3,6.256952882E-3,1.754770279E-1
8.861446839E0,-4.499197006E-3,1.812204719E-4,4.007434845E-2
8.871517639E0,1.903736591E-2,1.010768116E-3,1.827430725E-2
8.881588440E0,-8.642911911E-3,9.009048343E-3,3.554344177E-3
8.891659241E0,-1.539134979E-2,1.904293895E-4,1.069545746E-2
8.901730042E0,-2.780675888E-3,8.143596351E-4,5.536079407E-2
8.911800842E0,-6.400227547E-3,-7.632739842E-3,3.532218933E-2
8.921902161E0,-1.428961754E-3,-1.445516944E-3,-3.627872467E-2
8.931972962E0,-2.864718437E-3,4.314556718E-3,-1.108951569E-1
8.942043762E0,-4.023551941E-3,1.038935408E-2,-2.850627899E-2
8.952114563E0,-1.851820946E-2,4.719689488E-3,-2.569389343E-2
8.962185364E0,3.379344940E-3,-3.273710608E-3,-3.462791443E-3
8.972256165E0,-9.137153625E-3,2.862032503E-3,2.307796478E-2
8.982326966E0,-4.744648933E-3,1.766412705E-2,3.967952728E-2
8.992428284E0,2.171385288E-2,-1.334165037E-2,4.641151428E-2
9.002499085E0,3.091979027E-2,-5.704343319E-3,4.568195343E-2
9.012569885E0,1.182198524E-3,-4.442326725E-3,-2.152633667E-2
9.022640686E0,-6.208777428E-3,-2.110914141E-2,-1.392745972E-2
9.032711487E0,9.281754494E-3,-2.125893161E-2,-2.767658234E-2
9.042782288E0,3.735184669E-3,-3.139174357E-2,1.286506653E-3
9.052883606E0,7.555484772E-3,-8.721916005E-3,-1.761913300E-2
9.062954407E0,4.913687706E-3,6.638269871E-3,9.223937988E-3
9.073025208E0,2.093875408E-2,2.820231020E-3,-1.189517975E-2
9.083096009E0,2.772772312E-2,1.142684557E-2,-3.481960297E-2
9.093166809E0,2.948760986E-2,-1.573720947E-3,-3.156661987E-2
9.103237610E0,2.140522003E-2,2.856526524E-3,-2.104949951E-2
9.113308411E0,9.677290916E-3,5.793634802E-3,2.972984314E-2
9.123409729E0,2.440822124E-2,1.957390457E-3,4.641628265E-2
9.133480530E0,1.220738888E-2,-1.593898982E-2,2.712535858E-2
9.143551331E0,8.804798126E-4,9.852514602E-3,5.750656128E-3
9.153622132E0,7.584333420E-3,2.385059930E-2,5.794239044E-2
9.163692932E0,5.636453629E-3,6.129168440E-3,-1.132869720E-2
9.173763733E0,1.028048992E-2,9.032115340E-3,-3.234291077E-2
9.183834534E0,-1.204907894E-2,1.473353617E-2,-1.771259308E-2
9.193935852E0,-1.266217232E-2,2.301223576E-2,-1.500511169E-2
9.204006653E0,-2.379345894E-2,1.610138640E-2,-1.630210876E-2
9.214077454E0,-1.762318611E-2,2.362163737E-2,7.227516174E-2
9.224148255E0,-9.304523468E-3,-7.624709979E-3,3.426551819E-2
9.234219055E0,4.747629166E-3,-2.661453933E-2,-3.112792969E-2
9.244289856E0,1.878714561E-2,-3.235022724E-2,-6.006526947E-2
9.254360657E0,7.111549377E-3,-7.674396038E-3,-2.519512177E-2
9.264461975E0,-6.917476654E-3,3.588225693E-2,-6.693553925E-2
9.274532776E0,-1.005041599E-2,-1.730898023E-2,-1.303291321E-2
9.284603577E0,4.790782928E-3,-4.303087294E-2,8.701896667E-2
9.294674378E0,6.355404854E-3,-8.207990229E-2,5.078315735E-2
9.304745178E0,-1.212072372E-2,-9.741033614E-2,-3.013896942E-2
9.314815979E0,-2.030134201E-4,-7.777020335E-3,-4.076957703E-2
9.324886780E0,-2.469766140E-2,-5.146709085E-2,-9.193420410E-4
9.334988098E0,-1.572346687E-2,-7.916676998E-2,1.139144897E-1
9.345058899E0,2.782297134E-2,-5.165383220E-2,8.894634247E-2
9.355129700E0,4.897272587E-2,2.166979015E-2,-5.868244171E-2
9.365200501E0,4.982399940E-2,1.105577350E-1,-1.963338852E-1
9.375271301E0,2.342927456E-2,2.563971281E-2,-9.458827972E-2
9.385342102E0,2.234125137E-2,-5.689996481E-2,-2.761268616E-2
9.395412903E0,1.920723915E-2,-4.133009911E-2,4.981994629E-3
9.405514221E0,-1.671969891E-2,8.998164535E-2,6.807422638E-2
9.415585022E0,-2.126145363E-2,1.342928410E-1,2.406253815E-1
9.425655823E0,1.457631588E-2,1.693135500E-2,2.905359268E-1
9.435726624E0,2.946650982E-2,-6.099271774E-2,1.354322433E-1
9.445797425E0,8.682370186E-3,-3.576478362E-2,6.907463074E-3
9.455868225E0,1.312530041E-2,1.051478088E-1,-4.567623138E-2
9.465939026E0,1.763880253E-2,2.132540941E-1,-1.486158371E-1
9.476040344E0,9.315729141E-3,1.445066035E-1,-1.804533005E-1
9.486111145E0,1.540899277E-2,1.046741009E-2,-8.304500580E-2
9.496181946E0,3.547501564E-2,-6.715244055E-2,2.437686920E-2
9.506252747E0,-6.486654282E-3,-1.602709293E-2,4.981422424E-2
9.516323548E0,-3.880739212E-3,-3.540313244E-2,7.681560516E-2
9.526394348E0,-1.307082176E-2,-7.523417473E-3,1.055850983E-1
9.536465149E0,1.117348671E-3,2.281910181E-2,7.894992828E-2
9.546566467E0,-5.518078804E-3,-2.044945955E-2,1.717853546E-2
9.556637268E0,8.604526520E-3,-2.634978294E-2,6.169319153E-3
9.566708069E0,-4.835247993E-3,-1.051479578E-2,9.862899780E-3
9.576778870E0,-8.186578751E-3,1.431429386E-2,-4.060649872E-2
9.586849671E0,1.681327820E-2,6.339788437E-3,-4.505634308E-2
9.596920471E0,1.200497150E-2,-3.198564053E-3,-4.442977905E-2
9.606991272E0,8.444070816E-3,6.606400013E-3,-1.750469208E-2
9.617092591E0,8.217811584E-3,9.838938713E-4,2.546596527E-2
9.627163391E0,2.635598183E-3,-5.345982313E-2,7.702541351E-2
9.637234192E0,6.178617477E-4,-3.403067589E-2,6.131744385E-2
9.647304993E0,6.310939789E-4,6.576067209E-2,5.544757843E-2
9.657375794E0,1.452493668E-2,5.758982897E-2,-1.152133942E-2
9.667446594E0,2.086877823E-2,1.618278027E-2,1.731300354E-2
9.677517395E0,1.912224293E-2,5.256980658E-2,-2.811050415E-2
9.687618714E0,-2.632379532E-3,2.441793680E-2,-5.330848694E-2
9.697689514E0,5.719661713E-3,-3.413707018E-2,1.929378510E-2
9.707760315E0,1.566791534E-2,-5.714070797E-2,4.579162598E-2
9.717831116E0,2.289390564E-2,-3.447663784E-2,2.770423889E-3
9.727901917E0,3.958725929E-2,-3.331923485E-2,-2.362346649E-2
9.737972717E0,1.190733910E-2,-1.684856415E-2,-3.552055359E-2
9.748043518E0,-1.677024364E-2,3.946459293E-2,2.639293671E-2
9.758144837E0,-2.402055264E-2,1.994788647E-2,3.999233246E-2
9.768215637E0,2.651333809E-3,-7.291913033E-3,2.283477783E-2
9.778286438E0,9.960412979E-3,-3.758633137E-2,6.295299530E-2
9.788357239E0,1.575231552E-3,-1.842093468E-2,8.099937439E-2
9.798428040E0,-8.125185966E-3,-3.691983223E-2,3.260517120E-2
9.808498841E0,3.090262413E-3,-5.570232868E-2,3.954792023E-2
9.818569641E0,1.745152473E-2,-5.590057373E-2,5.770683289E-3
9.828670960E0,1.960206032E-2,-5.210494995E-2,-1.781654358E-2
9.838741760E0,6.647467613E-3,-2.230620384E-2,-6.211853027E-2
9.848812561E0,1.947760582E-3,2.652156353E-2,-7.460498810E-2
9.858883362E0,4.420280457E-4,2.534973621E-2,-3.665828705E-2
9.868954163E0,3.561973572E-3,1.695990562E-2,1.004028320E-2
9.879024964E0,-4.193782806E-4,2.961516380E-3,4.637336731E-2
9.889095764E0,3.277540207E-3,-2.479946613E-2,5.811691284E-2
9.899197083E0,-8.082985878E-3,-1.957416534E-3,5.490016937E-2
9.909267884E0,-3.043365479E-2,3.054404259E-2,3.489780426E-2
9.919338684E0,2.008795738E-3,4.423975945E-3,8.030891418E-3
9.929409485E0,4.738330841E-3,-4.795181751E-2,-1.591587067E-2
9.939480286E0,2.307856083E-2,-5.571055412E-2,2.181720734E-2
9.949551087E0,2.127981186E-2,-4.518711567E-2,-3.319168091E-2
9.959621887E0,1.334929466E-2,-1.109850407E-2,-8.756637573E-3
9.969723206E0,6.455659866E-3,4.838109016E-3,2.455329895E-2
9.979794007E0,5.352139473E-3,-2.124536037E-2,6.456947327E-2
9.989864807E0,-1.704692841E-3,-3.538799286E-2,4.676628113E-2
9.999935608E0,5.909562111E-3,-5.746257305E-2,4.083728790E-2
1.001000641E1,2.218008041E-3,-3.093910217E-2,-4.087734222E-2
1.002007721E1,-1.172900200E-2,2.569210529E-2,-6.904602051E-2
1.003014801E1,8.562803268E-3,6.979703903E-3,-3.955078125E-2
1.004024933E1,1.289892197E-2,-2.158534527E-2,1.371955872E-2
1.005032013E1,1.372349262E-2,1.612412930E-2,4.953861237E-2
1.006039093E1,2.768385410E-2,-6.190776825E-3,7.081890106E-2
1.007046173E1,3.047513962E-2,-6.691336632E-2,7.536315918E-2
1.008053253E1,3.568637371E-2,-1.174482107E-1,7.965373993E-2
1.009060333E1,2.442371845E-2,-1.164190769E-1,4.836368561E-2
1.010067413E1,-1.035761833E-2,6.451606750E-4,3.136253357E-2
1.011077545E1,-2.488005161E-2,8.803188801E-2,-7.142066956E-3
1.012084625E1,-2.560853958E-2,6.352674961E-2,-6.878185272E-2
1.013091705E1,-1.408195496E-2,4.206192493E-2,-9.114837646E-2
1.014098785E1,3.049373627E-4,7.067096233E-2,-4.837989807E-2
1.015105866E1,1.090574265E-2,4.615545273E-3,-8.111953735E-3
1.016112946E1,1.737976074E-2,-5.137526989E-2,4.825305939E-2
1.017120026E1,1.729702950E-2,-6.857848167E-2,6.821823120E-2
1.018130158E1,2.571237087E-2,-7.944321632E-2,7.098865509E-2
1.019137238E1,9.790062904E-3,-4.683744907E-2,3.046417236E-2
1.020144318E1,-2.171623707E-2,4.607319832E-3,1.139736176E-2
1.021151398E1,-1.496326923E-2,-2.971696854E-2,1.357460022E-2
1.022158478E1,-3.453373909E-3,-3.012812138E-2,1.518058777E-2
1.023165558E1,7.668495178E-3,-8.235096931E-3,-4.670143127E-3
1.024172638E1,3.501176834E-3,-1.116979122E-2,4.208183289E-2
1.025182770E1,6.522059441E-3,-7.996916771E-3,6.171512604E-2
1.026189850E1,2.342724800E-2,3.907680511E-3,2.651023865E-2
1.027196930E1,2.507269382E-2,-6.767272949E-3,-4.819297791E-2
1.028204010E1,3.103148937E-2,-2.341115475E-2,-1.002120972E-1
1.029211090E1,1.298153400E-2,-1.500141621E-2,-3.302574158E-3
1.030218170E1,9.726166725E-3,-3.666412830E-2,6.673812866E-3
1.031225250E1,6.707787514E-3,-3.550684452E-2,6.752014160E-3
1.032235382E1,6.789445877E-3,-4.225301743E-2,1.363563538E-2
1.033242462E1,-2.224564552E-3,-2.544629574E-2,2.269840240E-2
1.034249542E1,1.988339424E-2,-5.126202106E-2,3.150844574E-2
1.035256622E1,2.381289005E-2,-6.514894962E-2,1.630115509E-2
1.036263702E1,2.256035805E-3,-4.656970501E-2,3.418636322E-2
1.037270782E1,-1.638162136E-2,-7.439100742E-2,-1.961612701E-2
1.038277863E1,-2.145767212E-5,-5.580341816E-2,2.665615082E-2
1.039287994E1,1.962780952E-3,-2.525603771E-2,1.066207886E-3
1.040295074E1,-5.585908890E-3,-1.116371155E-2,-3.277778625E-3
1.041302155E1,-1.863312721E-2,7.307648659E-3,-7.882118225E-3
1.042309235E1,-3.366601467E-2,4.438674450E-2,-2.242755890E-2
1.043316315E1,-1.013445854E-2,1.768350601E-2,-4.649353027E-2
1.044323395E1,7.183074951E-3,-4.533660412E-2,-1.108074188E-2
1.045330475E1,9.902596474E-3,-4.203057289E-2,2.344894409E-2
1.046340607E1,1.287770271E-2,-2.548551559E-2,-4.119873047E-3
1.047347687E1,1.577615738E-3,-2.915656567E-2,3.986358643E-3
1.048354767E1,6.747126579E-3,-1.756513119E-2,-1.655006409E-2
1.049361847E1,1.335823536E-2,-2.353942394E-2,-2.018070221E-2
1.050368927E1,1.675641537E-2,-2.955055237E-2,1.662731171E-2
1.051376007E1,8.734226227E-3,-1.147258282E-2,-4.018783569E-3
1.052383087E1,1.042664051E-2,-4.687309265E-4,1.372051239E-2
1.053393219E1,5.564570427E-3,1.012766361E-2,2.866363525E-2
1.054400299E1,8.998274803E-3,1.596510410E-2,3.143787384E-2
1.055407379E1,1.087009907E-2,-2.109599113E-2,5.056667328E-2
1.056414459E1,1.613712311E-2,-6.067144871E-2,5.474662781E-2
1.057421539E1,6.776452065E-3,-3.443729877E-2,9.315490723E-3
1.058428619E1,2.253472805E-2,-4.028224945E-2,-2.192497253E-3
1.059435700E1,1.927638054E-2,-7.028985023E-2,-1.802444458E-3
1.060445831E1,1.896071434E-2,-4.647505283E-2,-4.190826416E-2
1.061452911E1,3.221869469E-3,-2.425539494E-2,-6.933498383E-2
1.062459992E1,-3.837466240E-3,-3.312110901E-3,-7.017135620E-2
1.063467072E1,7.171392441E-3,-4.694461823E-3,-7.564067841E-2
1.064474152E1,-5.606174469E-3,1.745212078E-2,-2.411842346E-2
1.065481232E1,-4.497885704E-3,5.846142769E-3,-4.170417786E-3
1.066488312E1,3.089189529E-3,-3.580093384E-3,1.318740845E-2
1.067498444E1,8.237719536E-3,-3.489720821E-2,1.608371735E-2
1.068505524E1,7.963657379E-3,-1.111662388E-2,2.577972412E-2
1.069512604E1,4.135251045E-3,-9.029269218E-3,9.209632874E-3
1.070519684E1,-3.814697266E-6,-3.030312061E-2,5.019187927E-3
1.071526764E1,2.404558659E-2,-5.823159218E-2,2.938175201E-2
1.072533844E1,5.537271500E-3,-3.635227680E-2,2.966403961E-2
1.073540924E1,2.113342285E-3,-1.776731014E-2,4.402828217E-2
1.074551056E1,-6.390810013E-4,-2.605593204E-2,1.072216034E-2
1.075558136E1,1.724147797E-2,-3.923940659E-2,-1.943302155E-2
1.076565216E1,7.380247116E-4,-3.177368641E-2,-3.466606140E-2
1.077572296E1,-1.871824265E-3,-2.577435970E-2,-3.537940979E-2
1.078579376E1,-9.383678436E-3,-9.785890579E-3,-3.617382050E-2
1.079586456E1,-7.449865341E-3,1.871609688E-2,-8.424758911E-2
1.080593536E1,1.184678078E-2,1.999342442E-2,-5.786228180E-2
1.081603668E1,-6.418228149E-4,-9.548664093E-4,-3.390312195E-3
1.082610748E1,-1.051187515E-2,-8.016467094E-3,2.180862427E-2
1.083617828E1,1.010894775E-3,-1.363736391E-2,4.906272888E-2
1.084624908E1,1.067698002E-2,-2.965921164E-2,4.032802582E-2
1.085631989E1,2.298748493E-2,-5.124139786E-2,2.938938141E-2
1.086639069E1,2.130258083E-2,-7.392460108E-2,-3.061294556E-4
1.087646149E1,5.081057549E-3,-4.577201605E-2,-2.940368652E-2
1.088656280E1,2.839565277E-3,-1.443380117E-2,-1.756191254E-2
1.089663361E1,-7.311105728E-4,1.150774956E-2,-4.426574707E-2
1.090670441E1,2.134799957E-3,-2.308189869E-2,-5.863761902E-2
1.091677521E1,1.315522194E-2,6.019771099E-3,-6.537723541E-2
1.092684601E1,-8.192062378E-4,2.543532848E-2,-5.252552032E-2
1.093691681E1,1.621055603E-2,2.894729376E-3,2.031326294E-2
1.094698761E1,5.337238312E-3,-1.812967658E-2,4.291534424E-2
1.095708893E1,9.068965912E-3,-2.163517475E-2,3.217029572E-2
1.096715973E1,-1.736640930E-3,-5.667269230E-3,-2.606773376E-2
1.097723053E1,1.854383945E-2,3.961378336E-2,-2.657890320E-3
1.098730133E1,1.063561440E-2,8.605808020E-2,-7.319355011E-2
1.099737213E1,1.425993443E-2,2.023293078E-2,-7.421875000E-2
1.100744293E1,-2.873182297E-3,-7.165968418E-3,1.368808746E-2
1.101751373E1,-5.765199661E-3,8.333772421E-4,5.655479431E-2
1.102761505E1,-1.145410538E-2,2.965569496E-3,6.363010406E-2
1.103768585E1,-1.313388348E-2,4.591703415E-3,3.217792511E-2
1.104775665E1,-1.338362694E-2,3.396447003E-2,-1.135063171E-2
1.105782745E1,-9.468793869E-3,3.767834604E-2,1.224899292E-2
1.106789826E1,1.332652569E-2,4.354396462E-2,-4.808425903E-3
1.107796906E1,5.530953407E-3,1.825203001E-2,-3.384399414E-2
1.108803986E1,1.674294472E-2,8.862420917E-3,-2.218246460E-2
1.109814118E1,1.656973362E-2,2.270281315E-2,-3.217792511E-2
1.110821198E1,1.444804668E-2,2.708440274E-2,-2.306652069E-2
1.111828278E1,2.618789673E-2,3.240376711E-3,-9.022712708E-3
1.112835358E1,2.824890614E-2,-5.247622728E-3,-1.168060303E-2
1.113842438E1,2.125978470E-2,1.177944243E-3,-2.625274658E-2
1.114849518E1,7.916569710E-3,3.260813653E-3,-4.300498962E-2
1.115856598E1,4.693746567E-3,1.508202404E-2,4.224777222E-3
1.116866730E1,-2.811789513E-3,-8.483231068E-3,1.514911652E-2
1.117873810E1,-1.578688622E-3,9.797438979E-4,-5.679512024E-2
1.118880890E1,3.603100777E-3,3.148501366E-2,-1.151084900E-2
1.119887970E1,3.667116165E-3,2.135537565E-2,-7.070541382E-3
1.120895050E1,9.988427162E-3,4.431010038E-2,-4.506492615E-2
1.121902130E1,8.332252502E-3,4.620161653E-2,-6.105422974E-2
1.122909210E1,7.754087448E-3,3.208519518E-2,-4.807186127E-2
1.123919342E1,1.187920570E-2,2.798222005E-2,-2.353763580E-2
1.124926422E1,7.144689560E-3,7.468767464E-3,-5.159378052E-2
1.125933502E1,2.774119377E-3,1.117385179E-2,-5.549430847E-2
1.126940582E1,1.199483871E-3,3.582559526E-3,-3.342342377E-2
1.127947662E1,-5.829334259E-5,-1.090577990E-2,2.378559113E-2
1.128954742E1,8.291602135E-3,9.987875819E-4,-1.471328735E-2
1.129961823E1,1.370513439E-2,3.275372088E-3,-5.715656281E-2
1.130971954E1,7.025599480E-3,8.008703589E-4,-3.505134583E-2
1.131979034E1,5.177497864E-3,7.610529661E-3,-4.640483856E-2
1.132986114E1,7.930278778E-3,1.193176210E-2,-3.630828857E-2
1.133993195E1,1.030826569E-2,7.015436888E-3,-4.986381531E-2
1.135000275E1,7.416009903E-4,-4.575826228E-3,-2.302074432E-2
1.136007355E1,-1.991391182E-3,-8.875399828E-3,1.290130615E-2
1.137014435E1,-9.047985077E-5,1.000978053E-3,2.931785583E-2
1.138024567E1,6.595492363E-3,1.457870007E-3,4.544162750E-2
1.139031647E1,8.956193924E-3,-5.274713039E-3,3.520488739E-2
1.140038727E1,1.880049706E-3,1.809380949E-3,1.803112030E-2
1.141045807E1,6.871819496E-3,2.753662318E-2,1.128196716E-3
1.142052887E1,7.369995117E-3,1.974267513E-2,-1.788806915E-2
1.143059967E1,7.708907127E-3,1.238358766E-2,-2.944660187E-2
1.144067047E1,1.999163628E-2,2.755038440E-3,-1.015567780E-2
1.145077179E1,1.399755478E-3,1.930946857E-2,-4.784965515E-2
1.146084259E1,1.342606544E-2,1.437569410E-2,-5.894851685E-2
1.147091339E1,7.861852646E-3,1.464021951E-2,-4.601001740E-2
1.148098419E1,7.119894028E-3,1.540169120E-2,-1.439762115E-2
1.149105499E1,3.608822823E-3,1.180724055E-2,-2.586078644E-2
1.150112579E1,1.167523861E-2,8.964233100E-3,-2.039718628E-2
1.151119659E1,1.031041145E-2,4.143610597E-3,-1.044368744E-2
1.152129791E1,1.404356956E-2,1.629017293E-3,1.352787018E-2
1.153136871E1,1.311039925E-2,1.255308092E-2,-2.206420898E-2
1.154143951E1,3.720521927E-4,1.387702674E-2,-7.309913635E-3
1.155151032E1,2.295613289E-3,2.698116750E-2,-3.080177307E-2
1.156158112E1,-1.296174526E-2,2.084504813E-2,-4.191303253E-2
1.157165192E1,-7.505893707E-3,2.680641413E-2,-2.898693085E-2
1.158172272E1,-4.865765572E-3,2.169048041E-2,-6.833171844E-2
1.159182404E1,8.157491684E-4,-7.792681456E-3,-2.152156830E-2
1.160189484E1,5.614757538E-3,2.369941026E-2,1.506900787E-2
1.161196564E1,5.420923233E-3,1.105631143E-2,3.700637817E-2
1.162203644E1,1.453733444E-2,1.472397149E-2,-5.213737488E-3
1.163210724E1,1.066517830E-2,3.154983371E-2,-5.169582367E-2
1.164217804E1,3.762245178E-4,4.804149270E-3,-2.417755127E-2
1.165224884E1,-2.740025520E-3,-1.108896732E-2,-2.556514740E-2
1.166235016E1,1.279473305E-3,-2.797679603E-2,-4.582214355E-2
1.167242096E1,1.754748821E-2,-3.044483066E-2,2.165412903E-2
1.168249176E1,1.153743267E-2,6.099030375E-3,2.851581573E-2
1.169256256E1,1.199793816E-2,3.191460669E-2,-2.839946747E-2
1.170263336E1,1.402699947E-2,3.616698086E-2,-6.462764740E-2
1.171270416E1,2.824425697E-3,3.122867644E-2,-2.397918701E-2
1.172277496E1,1.902604103E-2,3.008075058E-2,4.192352295E-3
1.173287628E1,1.321697235E-2,9.145855904E-2,-2.902317047E-2
1.174294708E1,-3.732442856E-4,5.365821719E-2,7.071208954E-2
1.175301788E1,-3.959178925E-3,-6.443825364E-2,7.352828979E-2
1.176308868E1,1.330482960E-2,-1.121952385E-1,4.028701782E-2
1.177315948E1,2.375519276E-2,-4.181778431E-2,-2.538681030E-3
1.178323029E1,3.259062767E-2,-1.354885101E-2,-2.414608002E-2
1.179330109E1,3.102779388E-2,-2.961435914E-2,-4.070854187E-2
1.180340240E1,1.464760303E-2,7.883623242E-3,-1.254081726E-2
1.181347321E1,9.451270103E-3,8.422791958E-3,-1.277351379E-2
1.182354401E1,-1.079201698E-3,1.174628735E-2,7.966327667E-2
1.183361481E1,-7.044076920E-3,5.326348543E-2,5.705070496E-2
1.184368561E1,-1.034379005E-2,-9.142160416E-3,7.289218903E-2
1.185375641E1,2.765417099E-3,-4.696878791E-2,8.828926086E-2
1.186382721E1,1.496934891E-2,-2.688392997E-2,4.187583923E-2
1.187389801E1,1.266801357E-2,4.857420921E-3,4.482269287E-4
1.188399933E1,2.062392235E-2,3.097671270E-2,-3.065776825E-2
1.189407013E1,2.661252022E-2,5.218881369E-2,-7.012653351E-2
1.190414093E1,2.305972576E-2,2.861222625E-2,1.004600525E-2
1.191421173E1,1.500821114E-2,2.388158441E-2,1.794242859E-2
1.192428253E1,-8.854866028E-4,5.566895008E-3,-6.756782532E-3
1.193435333E1,7.220625877E-3,1.644372940E-2,9.233474731E-3
1.194442413E1,-1.322913170E-2,4.919230938E-2,-4.014968872E-4
1.195452545E1,-3.441774845E-2,7.961136103E-2,-9.502410889E-3
1.196459625E1,-3.803074360E-2,1.759219170E-2,3.205776215E-2
1.197466705E1,1.861691475E-2,-6.439864635E-2,1.038045883E-1
1.198473785E1,8.652567863E-3,4.127717018E-2,3.689765930E-2
1.199480866E1,7.614612579E-3,7.984280586E-2,-1.162242889E-2
1.200487946E1,-1.302957535E-3,6.853973866E-2,-2.116203308E-3
1.201495026E1,-1.034665108E-2,9.302300215E-2,2.171039581E-2
1.202505158E1,5.637407303E-4,6.416106224E-2,5.022048950E-3
1.203512238E1,1.181364059E-2,3.646302223E-2,-2.082347870E-2
1.204519318E1,2.802014351E-3,-1.574873924E-3,-2.972030640E-2
1.205526398E1,1.834464073E-2,-1.169288158E-2,-1.419734955E-2
1.206533478E1,4.661321640E-3,-2.215027809E-3,-5.478858948E-3
1.207540558E1,4.763007164E-3,-4.214739799E-2,2.760028839E-2
1.208547638E1,2.434647083E-2,-5.060112476E-2,4.409980774E-2
1.209557770E1,2.121305466E-2,4.325866699E-3,5.839824677E-2
1.210564850E1,-3.565669060E-3,3.123366833E-2,8.589744568E-3
1.211571930E1,3.164768219E-3,6.059288979E-3,3.375148773E-2
1.212579010E1,2.136015892E-2,-3.612327576E-2,8.993148804E-3
1.213586090E1,3.211104870E-2,-4.546952248E-2,8.435249329E-3
1.214593170E1,1.163959503E-2,-3.499746323E-3,2.472209930E-2
1.215600250E1,-1.327514648E-2,1.579034328E-2,6.015014648E-2
1.216610382E1,1.277565956E-2,2.541303635E-3,5.235385895E-2
1.217617462E1,2.367544174E-2,-1.717138290E-2,5.378055573E-2
1.218624542E1,1.908862591E-2,-4.997014999E-3,-9.659767151E-3
1.219631622E1,4.611968994E-3,8.174300194E-3,-4.179668427E-2
1.220638702E1,4.957795143E-3,-1.551997662E-2,-1.176929474E-2
1.221645782E1,4.026174545E-3,-2.121806145E-2,1.311492920E-2
1.222652863E1,7.421970367E-4,-2.187919617E-2,4.234313965E-3
1.223662994E1,-2.800714970E-2,1.015973091E-2,3.820800781E-2
1.224670074E1,-1.594948769E-2,1.219511032E-2,2.841949463E-2
1.225677155E1,6.954669952E-4,-1.845741272E-2,-8.319854736E-3
1.226684235E1,1.444888115E-2,5.568742752E-3,-2.390289307E-2
1.227691315E1,2.671098709E-2,1.424908638E-2,-9.910774231E-2
1.228698395E1,1.450085640E-2,6.510496140E-3,-2.326011658E-2
1.229705475E1,2.200567722E-2,-8.174419403E-3,-2.547264099E-3
1.230715607E1,1.829385757E-2,-4.236984253E-2,3.465652466E-2
1.231722687E1,-1.230359077E-3,-5.626940727E-2,6.183242798E-2
1.232729767E1,4.994034767E-3,-6.743168831E-2,7.666778564E-2
1.233736847E1,1.400864124E-2,-9.541845322E-2,7.647705078E-2
1.234743927E1,3.116571903E-2,-6.111836433E-2,2.064990997E-2
1.235751007E1,3.829169273E-2,-4.951500893E-2,-6.151580811E-2
1.236758087E1,2.006089687E-2,-5.171179771E-2,3.814697266E-4
1.237768219E1,2.557182312E-2,-4.132986069E-2,-6.938934326E-3
1.238775299E1,1.976907253E-2,-1.347589493E-2,1.451206207E-2
1.239782379E1,9.747982025E-3,2.402210236E-2,2.632713318E-2
1.240789459E1,2.448081970E-3,1.716971397E-2,2.317333221E-2
1.241796539E1,-4.278182983E-3,-8.060932159E-4,3.610897064E-2
1.242803619E1,1.235246658E-3,-3.728199005E-2,2.934360504E-2
1.243810700E1,1.130008698E-2,-5.146026611E-2,6.232643127E-2
1.244820831E1,1.765334606E-2,-3.833770752E-2,5.156421661E-2
1.245827911E1,1.659739017E-2,-1.923823357E-2,-8.685112000E-3
1.246834992E1,1.954007149E-2,-1.903867722E-2,-2.042579651E-2
1.247842072E1,1.925551891E-2,-2.309036255E-2,-9.956359863E-4
1.248849152E1,4.733443260E-3,-3.401041031E-2,1.348400116E-2
1.249856232E1,-1.465916634E-3,-9.323835373E-3,2.507781982E-2
1.250863312E1,-2.068042755E-3,-5.644392967E-2,4.339885712E-2
1.251873444E1,-5.481123924E-3,-6.411123276E-2,6.816959381E-2
1.252880524E1,-6.599545479E-3,-5.008935928E-2,4.464340210E-2
1.253887604E1,-1.080560684E-2,-2.884340286E-2,-2.128124237E-2
1.254894684E1,7.470369339E-3,-9.033918381E-3,-2.707862854E-2
1.255901764E1,1.588392258E-2,-1.556611061E-2,-1.627731323E-2
1.256908844E1,8.286118507E-3,-1.199913025E-2,-5.579948425E-3
1.257915924E1,1.727557182E-2,-4.810976982E-2,3.825664520E-2
1.258926056E1,2.421581745E-2,-6.708526611E-2,6.223106384E-2
1.259933136E1,3.185153008E-3,-6.071591377E-2,5.951309204E-2
1.260940216E1,2.540874481E-2,-5.508661270E-2,4.716396332E-2
1.261947296E1,3.996050358E-2,-2.813029289E-2,1.375293732E-2
1.262954376E1,1.484525204E-2,1.260113716E-2,-1.209831238E-2
1.263961456E1,9.222388268E-3,1.242971420E-2,-3.983688354E-2
1.264968536E1,1.422119141E-2,-2.843523026E-2,-9.126663208E-4
1.265978668E1,2.337837219E-2,-4.128074646E-2,1.608848572E-3
1.266985748E1,8.831381798E-3,2.169609070E-3,4.076004028E-3
1.267992828E1,8.800506592E-3,-1.192212105E-2,3.240394592E-2
1.268999908E1,1.416432858E-2,-2.558946609E-2,2.948856354E-2
1.270006989E1,1.050829887E-2,-3.909635544E-2,1.939201355E-2
1.271014069E1,5.238413811E-3,-5.497837067E-2,5.420112610E-2
1.272021149E1,2.786517143E-3,-7.626461983E-2,5.250167847E-2
1.273031280E1,-9.432315826E-3,-6.252408028E-2,3.192138672E-2
1.274038361E1,-7.841825485E-3,-5.397891998E-2,-2.388381958E-2
1.275045441E1,-6.847739220E-3,1.178669930E-2,1.352596283E-2
1.276052521E1,6.315350533E-3,4.396224022E-2,-1.551628113E-2
1.277059601E1,5.070924759E-3,5.460500717E-3,-1.064205170E-2
1.278066681E1,1.058793068E-2,-2.078580856E-2,3.468513489E-3
1.279073761E1,1.044738293E-2,-4.316568375E-3,3.289222717E-3
1.280083893E1,2.932429314E-3,-2.319097519E-2,1.510334015E-2
1.281090973E1,-9.223818779E-3,-2.739500999E-2,3.142833710E-2
1.282098053E1,-4.329681396E-3,-1.527667046E-2,2.136325836E-2
1.283105133E1,2.330541611E-4,-6.216287613E-3,1.375484467E-2
1.284112213E1,7.294893265E-3,-2.366471291E-2,3.219223022E-2
1.285119293E1,7.167935371E-3,-2.564907074E-3,1.732635498E-2
1.286126373E1,9.075880051E-3,5.317211151E-3,1.260089874E-2
1.287136505E1,2.801859379E-2,-4.946494102E-2,3.892421722E-2
1.288143585E1,2.414429188E-2,-6.949305534E-2,4.581260681E-2
1.289150665E1,1.083767414E-2,-3.066754341E-2,1.935386658E-2
1.290157745E1,4.803895950E-3,-8.344650269E-4,-3.295993805E-2
1.291164826E1,2.880573273E-3,-1.555061340E-2,-3.966426849E-2
1.292171906E1,6.658792496E-3,-2.635598183E-2,-3.766059875E-3
1.293178986E1,-1.196503639E-3,-1.792812347E-2,3.108024597E-3
1.294189118E1,3.551721573E-3,-1.787304878E-2,2.664470673E-2
1.295196198E1,8.574962616E-3,-4.738998413E-2,5.708789825E-2
1.296203278E1,1.173639297E-2,-3.599143028E-2,6.797981262E-2
1.297210358E1,1.049613953E-2,-1.534748077E-2,2.198982239E-2
1.298217438E1,2.384543419E-3,-7.380485535E-3,2.150630951E-2
1.299224518E1,-5.144596100E-3,-3.096103668E-3,1.714706421E-3
1.300231598E1,-7.040500641E-4,-1.657009125E-4,-3.235244751E-2
1.301241730E1,-7.050752640E-3,-1.865339279E-2,-3.778648376E-2
1.302248810E1,-4.635214806E-3,-3.398394585E-2,-1.523590088E-2
1.303255890E1,6.802439690E-3,-3.928089142E-2,-1.242542267E-2
1.304262970E1,2.006232738E-2,-8.016586304E-3,-1.466941833E-2
1.305270050E1,1.204621792E-2,7.967948914E-3,-7.629394531E-3
1.306277130E1,2.605283260E-2,-2.707242966E-3,1.098823547E-2
1.307284210E1,1.676487923E-2,-2.800059319E-2,2.421951294E-2
1.308294342E1,6.922483444E-4,-2.079963684E-2,1.101875305E-2
1.309301422E1,9.701251984E-4,-4.529881477E-2,9.691238403E-3
1.310308502E1,9.007334709E-3,-4.886198044E-2,8.049011230E-3
1.311315582E1,-4.502177238E-3,-2.482604980E-2,-1.728057861E-2
1.312322662E1,4.857301712E-3,-2.295017242E-2,-1.377391815E-2
1.313329742E1,-6.699085236E-3,-7.057428360E-3,1.325607300E-3
1.314336823E1,-1.222848892E-3,-6.119012833E-3,1.895904541E-3
1.315346954E1,6.862401962E-3,-3.413271904E-2,1.889991760E-2
1.316354034E1,8.320093155E-3,-7.038235664E-2,3.022003174E-2
1.317361114E1,3.044843674E-3,-7.523298264E-2,4.082965851E-2
1.318368195E1,2.866625786E-3,-4.494571686E-2,-1.529312134E-2
1.319375275E1,-4.734754562E-3,-3.684353828E-2,6.625175476E-3
1.320382355E1,-7.379174232E-3,-1.743912697E-2,8.642196655E-3
1.321389435E1,-2.692699432E-3,-2.983427048E-2,-2.791118622E-2
1.322399567E1,1.013517380E-3,-2.602219582E-2,-6.649303436E-2
1.323406647E1,7.870793343E-3,-7.559776306E-3,-5.954837799E-2
1.324413727E1,1.902127266E-2,-9.235620499E-3,-4.096603394E-2
1.325420807E1,2.513086796E-2,-1.853227615E-3,-4.617691040E-2
1.326427887E1,2.923607826E-2,-4.680562019E-2,7.200241089E-4
1.327434967E1,2.042973042E-2,-3.954863548E-2,6.361961365E-3
1.328442047E1,2.439546585E-2,-5.177569389E-2,2.609157562E-2
1.329452179E1,2.408063412E-2,-7.588565350E-2,2.888298035E-2
1.330459259E1,1.262402534E-2,-7.179510593E-2,1.975822449E-2
1.331466339E1,1.040279865E-2,-3.351759911E-2,-1.985645294E-2
1.332473419E1,-7.160186768E-3,-1.169395447E-2,-6.579875946E-2
1.333480499E1,2.868771553E-3,-1.287758350E-2,-1.630973816E-2
1.334487579E1,-1.727128029E-2,-1.381278038E-2,-1.292324066E-2
1.335494659E1,-2.083539963E-2,-3.884804249E-2,-2.900505066E-2
1.336504791E1,-1.322090626E-2,-5.441832542E-2,-2.116680145E-2
1.337511871E1,-1.049280167E-3,-6.673622131E-2,1.776790619E-2
1.338518951E1,-1.873254776E-3,-4.227006435E-2,-1.289272308E-2
1.339526032E1,-1.189804077E-2,-1.480162144E-2,-6.018543243E-2
1.340533112E1,-6.721854210E-3,-1.069974899E-2,-9.265899658E-2
1.341540192E1,-1.027858257E-2,-9.954571724E-3,-6.240272522E-2
1.342547272E1,-1.339185238E-2,1.885890961E-4,-2.479171753E-2
1.343557404E1,5.734205246E-3,-6.427407265E-3,-1.811408997E-2
1.344564484E1,7.725119591E-3,-2.263474464E-2,-1.817417145E-2
1.345571564E1,1.641941071E-2,-2.094340324E-2,-1.187324524E-3
1.346578644E1,-1.281487942E-2,8.180022240E-3,1.354980469E-2
1.347585724E1,3.332734108E-3,-1.879101992E-2,-4.864692688E-3
1.348592804E1,1.413738728E-2,-4.208654165E-2,-3.003883362E-2
1.349599884E1,2.634501457E-2,-5.400127172E-2,-3.546524048E-2
1.350610016E1,1.819264889E-2,-1.670992374E-2,-9.231567383E-3
1.351617096E1,1.260876656E-3,-1.870054007E-2,7.603645325E-3
1.352624176E1,4.417419434E-3,-3.689688444E-2,-8.865356445E-3
1.353631256E1,9.805560112E-3,-6.317281723E-2,-5.865097046E-3
1.354638336E1,5.860328674E-3,-6.933283806E-2,6.968498230E-3
1.355645416E1,2.735495567E-3,4.575252533E-4,-1.813316345E-2
1.356652496E1,7.401823997E-3,5.943554640E-2,-1.400375366E-2
1.357662628E1,4.671645164E-2,5.585286021E-2,1.288614273E-1
1.358669708E1,8.971285820E-2,1.706090569E-1,-1.421833038E-1
1.359676788E1,4.042112827E-2,9.430615604E-2,-3.633165359E-1
1.360683868E1,-3.953886032E-2,-3.157132864E-2,1.132297516E-1
1.361690948E1,3.161776066E-2,-5.969043076E-2,2.284269333E-1
1.362698029E1,1.927423477E-2,-3.767439723E-2,1.756381989E-2
1.363705109E1,-9.613275528E-3,9.993568063E-3,-4.267311096E-2
1.364715241E1,-1.348078251E-2,7.427242398E-2,4.612922668E-3
1.365722321E1,-3.015995026E-5,5.210925639E-2,7.125186920E-2
1.366729401E1,1.522755623E-2,2.951158583E-2,3.023242950E-2
1.367736481E1,1.051795483E-2,2.754238248E-2,-9.935665131E-2
1.368743561E1,1.741027832E-2,2.606987953E-2,-1.185827255E-1
1.369750641E1,1.098954678E-2,8.736312389E-3,-2.763938904E-2
1.370757721E1,4.014849663E-3,-8.936375380E-4,-1.088714600E-2
1.371764801E1,1.094555855E-2,1.612886786E-3,-3.949928284E-2
1.372774933E1,-3.177404404E-3,4.298448563E-3,-8.723449707E-2
1.373782013E1,-1.009738445E-2,-2.344995737E-4,-1.037883759E-1
1.374789093E1,-5.142450333E-3,7.076710463E-3,-7.487010956E-2
1.375796173E1,4.558801651E-3,2.506345510E-3,-6.992149353E-2
1.376803253E1,1.905798912E-3,2.219483256E-3,-4.508209229E-2
1.377810333E1,-3.969669342E-5,6.301522255E-3,-3.020668030E-2
1.378817413E1,1.256608963E-2,7.410034537E-3,-3.222846985E-2
1.379827545E1,2.057456970E-2,1.743933558E-2,-2.485942841E-2
1.380834625E1,1.876485348E-2,2.186003327E-2,-4.116344452E-2
1.381841705E1,1.867914200E-2,4.238112271E-2,-3.579998016E-2
1.382848785E1,1.875841618E-2,3.431538492E-2,-1.877307892E-2
1.383855866E1,1.198542118E-2,2.685189247E-2,-9.179115295E-3
1.384862946E1,7.697343826E-3,3.200754523E-2,-2.097702026E-2
1.385870026E1,1.023519039E-2,2.590976655E-2,-3.965759277E-2
1.386880158E1,1.466464996E-2,8.731640875E-3,-4.360485077E-2
1.387887238E1,1.878941059E-2,1.102382690E-2,-4.280376434E-2
1.388894318E1,1.622438431E-2,1.127460599E-2,-5.390644073E-2
1.389901398E1,1.113390923E-2,7.196515799E-3,-3.401851654E-2
1.390908478E1,1.067554951E-2,-4.036046565E-3,-1.686191559E-2
1.391915558E1,1.060187817E-2,-1.102454960E-3,-3.783893585E-2
1.392922638E1,1.554751396E-2,1.750864089E-3,-3.262233734E-2
1.393932770E1,1.588106155E-3,-5.007416010E-3,-3.216457367E-2
1.394939850E1,6.713032722E-3,-4.759810865E-3,-2.230262756E-2
1.395946930E1,-2.375483513E-3,1.449491084E-2,-3.143882751E-2
1.396954010E1,-1.139140129E-2,3.788098693E-4,4.480361938E-3
1.397961090E1,9.543895721E-4,5.163557827E-3,-2.860069275E-3
1.398968170E1,1.052045822E-2,2.388899773E-2,-3.117179871E-2
1.399975250E1,3.034114838E-3,-2.705387771E-3,-9.310722351E-3
1.400985382E1,5.037188530E-3,1.676231623E-3,-9.180068970E-3
1.401992462E1,4.556536674E-3,1.319521666E-2,-2.316379547E-2
1.402999542E1,1.107215881E-3,1.991977543E-2,-4.627799988E-2
1.404006622E1,2.485752106E-3,2.410380542E-2,-5.718421936E-2
1.405013702E1,8.248925209E-3,1.167815179E-2,-3.477096558E-2
1.406020782E1,1.927626133E-2,2.335259318E-2,-2.697658539E-2
1.407027863E1,4.301428795E-3,2.563553303E-2,-3.592300415E-2
1.408037994E1,6.308913231E-3,1.643378288E-2,-3.525066376E-2
1.409045074E1,1.331388950E-2,1.454639435E-2,-3.469085693E-2
1.410052155E1,1.065325737E-2,3.453038633E-3,-2.459812164E-2
1.411059235E1,5.274534225E-3,6.833709776E-3,-2.649879456E-2
1.412066315E1,4.454731941E-3,1.268693805E-2,-1.886653900E-2
1.413073395E1,6.092786789E-3,1.642850786E-2,-3.490734100E-2
1.414080475E1,2.152824402E-2,-3.415398300E-3,-2.233886719E-2
1.415090607E1,1.506507397E-2,7.404960692E-3,-5.489540100E-2
1.416097687E1,1.312422752E-2,2.828803658E-2,-5.362510681E-2
1.417104767E1,-3.306508064E-3,-4.811897874E-3,-3.147125244E-4
1.418111847E1,-4.870176315E-3,-2.498000860E-3,6.611728668E-2
1.419118927E1,-9.336471558E-4,1.138167083E-2,-1.269817352E-2
1.420126007E1,2.795815468E-3,1.528546214E-3,-3.579807281E-2
1.421133087E1,4.180788994E-3,2.032373846E-2,-3.503322601E-2
1.422143219E1,5.088448524E-3,3.192439675E-3,-3.652763367E-2
1.423150299E1,-7.435083389E-4,7.047846913E-3,2.810764313E-2
1.424157379E1,5.630254745E-4,-3.367036581E-3,2.032756805E-2
1.425164459E1,1.909375191E-3,6.651878357E-5,8.563995361E-4
1.426171539E1,-1.430511475E-3,3.261677921E-2,7.745742798E-3
1.427178619E1,3.432512283E-3,-1.091375947E-3,-1.367568970E-2
1.428185700E1,4.503726959E-3,2.828787267E-2,-5.301284790E-2
1.429195831E1,8.849382401E-3,3.800834715E-2,-3.981685638E-2
1.430202911E1,1.188969612E-2,8.848696947E-3,-1.468563080E-2
1.431209992E1,1.781988144E-2,6.654888391E-3,-1.146221161E-2
1.432217072E1,2.151226997E-2,1.385387778E-2,-7.444667816E-2
1.433224152E1,1.948511600E-2,-2.248376608E-3,-3.191184998E-2
1.434231232E1,1.921582222E-2,-6.104201078E-3,2.814960480E-2
1.435238312E1,1.406896114E-2,1.098817587E-2,3.023242950E-2
1.436248444E1,7.453083992E-3,-8.815735579E-3,-1.765632629E-2
1.437255524E1,-6.900668144E-3,1.249189675E-2,-5.265808105E-2
1.438262604E1,-7.766485214E-4,4.949718714E-3,-6.089782715E-2
1.439269684E1,6.316065788E-3,2.411678433E-3,-3.330516815E-2
1.440276764E1,2.927303314E-3,2.518118918E-2,-4.863929749E-2
1.441283844E1,1.297843456E-2,7.169023156E-3,-2.051734924E-2
1.442290924E1,1.123440266E-2,2.404183149E-2,4.479598999E-2
1.443301056E1,1.803231239E-2,2.127549052E-2,4.982662201E-2
1.444308136E1,3.162825108E-2,-3.425922990E-2,6.392383575E-2
1.445315216E1,-3.548860550E-3,-5.534344912E-2,1.142978668E-2
1.446322296E1,-2.028346062E-3,-4.080882668E-2,-8.948326111E-3
1.447329376E1,1.954138279E-2,3.059008718E-2,-5.138397217E-3
1.448336456E1,-9.417772293E-3,1.518256664E-1,-2.997875214E-2
1.449343536E1,-3.619790077E-3,1.219691038E-1,-2.612400055E-2
1.450353668E1,1.184821129E-3,4.021996260E-2,-1.955986023E-2
1.451360748E1,1.370048523E-2,-2.125805616E-2,6.296157837E-3
1.452367828E1,3.467607498E-2,-1.366901398E-2,3.681659698E-2
1.453374908E1,2.249908447E-2,-1.366436481E-3,1.525974274E-2
1.454381989E1,2.470457554E-2,-7.270097733E-3,4.418373108E-2
1.455389069E1,9.405612946E-5,-1.409524679E-2,2.520465851E-2
1.456396149E1,-2.451097965E-2,2.515614033E-3,-7.281303406E-3
1.457406280E1,-1.623022556E-2,2.346634865E-2,8.300781250E-3
1.458413361E1,-2.481937408E-2,8.268952370E-3,2.565383911E-4
1.459422017E1,-3.081250191E-2,3.808408976E-2,3.035449982E-2
1.460429097E1,-2.627599239E-2,6.680774689E-2,1.728439331E-2
1.461436177E1,-1.681923866E-2,6.591993570E-2,-1.660156250E-2
1.462443257E1,-1.295793056E-2,6.397759914E-2,-1.201248169E-2
1.463450338E1,-1.710629463E-2,4.948532581E-2,9.429931641E-3
1.464460469E1,-1.805782318E-3,5.265617371E-2,-2.171993256E-2
1.465467549E1,2.742433548E-2,-8.035302162E-3,-4.652023315E-3
1.466474630E1,2.474212646E-2,-3.078782558E-2,4.612064362E-2
1.467481710E1,3.454661369E-2,-3.081905842E-2,3.693866730E-2
1.468488790E1,1.430451870E-2,-1.360487938E-2,2.514553070E-2
1.469495870E1,-3.311634064E-4,3.535532951E-2,-2.986335754E-2
1.470502950E1,5.802154541E-3,2.692866325E-2,-4.615688324E-2
1.471513082E1,1.784026623E-2,-3.262257576E-2,-9.253501892E-3
1.472520162E1,3.165614605E-2,-5.519962311E-2,3.989124298E-2
1.473527242E1,2.174139023E-2,-9.992957115E-3,2.465724945E-2
1.474534322E1,1.690125465E-2,-2.408027649E-4,3.117275238E-2
1.475541402E1,7.601499557E-3,1.213181019E-2,2.349376678E-2
1.476548482E1,1.512742043E-2,-6.992220879E-3,3.982925415E-2
1.477555562E1,1.129436493E-2,-4.339337349E-3,6.818199158E-2
1.478565694E1,3.848433495E-3,5.852460861E-3,7.736682892E-2
1.479572774E1,-3.471374512E-4,-5.515813828E-3,3.875064850E-2
1.480579854E1,2.085042000E-2,-3.639364243E-2,5.340576172E-4
1.481586934E1,1.701259613E-2,-3.003776073E-2,-1.567840576E-3
1.482594014E1,1.240825653E-2,-2.949821949E-2,6.031990051E-3
1.483601094E1,1.880478859E-2,-1.334238052E-2,-1.254177094E-2
1.484608174E1,-1.412391663E-3,3.090190887E-2,7.288932800E-3
1.485618306E1,-6.571412086E-3,1.274907589E-2,1.510620117E-2
1.486625386E1,7.749795914E-3,-1.591348648E-2,-3.519058228E-3
1.487632466E1,1.650094986E-2,-9.849786758E-3,-2.442550659E-2
1.488639547E1,-1.559031010E-2,4.691004753E-3,4.546165466E-2
1.489646627E1,-3.172993660E-3,-2.053689957E-2,5.737209320E-2
1.490653707E1,7.250905037E-3,-6.480598450E-2,1.857852936E-2
1.491660787E1,2.165448666E-2,-8.715510368E-2,5.135631561E-2
1.492670919E1,1.681435108E-2,-2.933168411E-2,9.822845459E-3
1.493677999E1,-4.951596260E-3,-5.557537079E-3,9.047508240E-3
1.494685079E1,3.573894501E-4,-6.528615952E-3,1.518821716E-2
1.495692159E1,-3.727197647E-3,-3.775119781E-3,2.588653564E-2
1.496699239E1,8.691549301E-4,-1.909232140E-2,4.843235016E-2
1.497706319E1,1.546609402E-2,-3.331851959E-2,3.950405121E-2
1.498713399E1,1.576542854E-3,-2.513456345E-2,2.785110474E-2
1.499720479E1,-2.118825912E-3,-1.309418678E-2,-7.953643799E-4
1.500730611E1,6.398320198E-3,6.094932556E-3,2.082443237E-2
1.501737691E1,1.842272282E-2,-2.413535118E-2,3.283405304E-2
1.502744771E1,2.348613739E-2,-5.326557159E-2,4.180908203E-2
1.503751851E1,2.089869976E-2,-5.124664307E-2,5.866050720E-3
1.504758931E1,5.103588104E-3,-5.800962448E-2,2.330780029E-2
1.505766011E1,3.104090691E-3,-5.363225937E-3,1.923084259E-2
1.506773091E1,1.098310947E-2,-4.910945892E-3,2.476310730E-2
1.507783223E1,1.219832897E-2,-9.155273438E-3,3.023242950E-2
1.508790303E1,-5.362510681E-3,-1.207280159E-2,4.241085052E-2
1.509797383E1,4.293799400E-3,5.007982254E-3,1.364898682E-2
1.510804464E1,1.367187500E-2,3.579854965E-3,-1.959037781E-2
1.511811544E1,2.224254608E-2,-3.230309486E-2,4.192352295E-3
1.512818624E1,2.101695538E-2,-5.477190018E-2,2.716541290E-2
1.513825704E1,2.497315407E-2,-6.135296822E-2,3.294181824E-2
1.514835836E1,2.640748024E-2,-4.173851013E-2,2.679347992E-2
1.515842916E1,3.423047066E-2,-3.557395935E-2,-2.349853516E-3
1.516849996E1,2.752602100E-2,-3.800606728E-2,5.207157135E-2
1.517857076E1,5.231022835E-3,-7.671594620E-3,-3.204345703E-2
1.518864156E1,9.028911591E-4,-9.836435318E-3,4.575729370E-2
1.519871236E1,-1.689195633E-3,-1.588702202E-2,3.859996796E-2
1.520878316E1,4.977464676E-3,-3.050279617E-2,7.775306702E-3
1.521888448E1,9.537339211E-3,-3.608608246E-2,2.239894867E-2
1.522895528E1,1.101505756E-2,-2.050948143E-2,-1.279544830E-2
1.523902608E1,-2.367854118E-3,-5.555152893E-5,2.845954895E-2
1.524909688E1,5.605220795E-3,1.177072525E-3,2.198219299E-2
1.525916768E1,8.892893791E-3,-4.097390175E-2,1.766586304E-2
1.526923848E1,-1.112568378E-2,-2.953386307E-2,3.656101227E-2
1.527930928E1,-2.737212181E-2,-3.949403763E-3,9.388923645E-3
1.528941060E1,-9.231686592E-3,-1.160144806E-2,1.492977142E-2
1.529948140E1,6.081938744E-3,-1.809501648E-2,-3.646850586E-3
1.530955220E1,8.198857307E-3,3.508090973E-3,-9.998321533E-3
1.531962300E1,9.840488434E-3,2.323460579E-2,-2.288436890E-2
1.532969381E1,2.721893787E-2,-2.147579193E-2,-6.313323975E-3
1.533976461E1,2.085399628E-2,-6.854438782E-2,5.278110504E-2
1.534983541E1,1.040685177E-2,-5.311822891E-2,6.119537354E-2
1.535993672E1,7.998585701E-3,-3.524875641E-2,5.294895172E-2
1.537000752E1,-8.298158646E-4,-3.222632408E-2,2.094650269E-2
1.538007833E1,-4.540801048E-3,-2.265715599E-2,1.765346527E-2
1.539014913E1,1.600325108E-2,-2.783346176E-2,2.367210388E-2
1.540021993E1,8.188486099E-3,-3.340530396E-2,1.513099670E-2
1.541029073E1,7.510185242E-3,1.106262207E-3,-2.636528015E-2
1.542036153E1,1.253509521E-2,-1.437997818E-2,-2.653598785E-2
1.543046285E1,2.306270599E-2,-3.598213196E-2,6.801605225E-3
1.544053365E1,2.396225929E-2,-3.753089905E-2,2.797031403E-2
1.545060445E1,1.326513290E-2,-2.685451508E-2,2.758026123E-2
1.546067525E1,7.664442062E-3,-2.030110359E-2,8.923816681E-2
1.547074605E1,1.049315929E-2,-2.115988731E-2,6.891059875E-2
1.548081685E1,9.765625000E-3,-2.032732964E-2,3.186035156E-2
1.549088765E1,-7.669925690E-3,-1.410150528E-2,-2.635002136E-3
1.550098897E1,-2.634525299E-5,7.304430008E-3,-2.721500397E-2
1.551105977E1,8.275389671E-3,7.394790649E-3,-1.784324646E-2
1.552113057E1,9.400010109E-3,-1.938319206E-2,1.230239868E-3
1.553120137E1,1.277184486E-2,-6.199359894E-3,4.888057709E-2
1.554127217E1,9.284734726E-3,-1.359176636E-2,5.111312866E-2
1.555134298E1,-1.275062561E-3,-2.841067314E-2,6.028175354E-2
1.556141378E1,1.295208931E-2,-6.609201431E-3,4.482841492E-2
1.557151509E1,-4.594326019E-4,-2.745485306E-2,6.294250488E-4
1.558158590E1,-6.112575531E-3,-2.616024017E-2,-1.053619385E-2
1.559165670E1,9.325504303E-3,-3.660821915E-2,-1.259803772E-2
1.560172750E1,5.510210991E-3,-1.836299896E-2,-3.195762634E-2
1.561179830E1,3.639578819E-3,-2.600407600E-2,-2.071189880E-2
1.562186910E1,1.351583004E-2,-3.024458885E-2,-1.245975494E-2
1.563193990E1,6.269216537E-3,-2.841544151E-2,2.471923828E-3
1.564204122E1,8.823394775E-3,-2.227282524E-2,1.220512390E-2
1.565211202E1,8.562803268E-3,-2.995133400E-2,2.926445007E-2
1.566218282E1,1.335978508E-2,-5.330252647E-2,4.370307922E-2
1.567225362E1,7.308721542E-3,-4.751706123E-2,4.353237152E-2
1.568232442E1,-3.130316734E-3,-2.990841866E-2,2.219390869E-2
1.569239522E1,3.589630127E-3,8.480072021E-3,3.408432007E-3
1.570246602E1,7.474422455E-4,1.043319702E-2,-3.349304199E-3
1.571256734E1,-4.577636719E-5,2.070665359E-3,-2.666091919E-2
1.572263814E1,3.866791725E-3,-1.479458809E-2,-2.869606018E-3
1.573270894E1,5.523681641E-3,-2.210140228E-4,-3.214359283E-2
1.574277974E1,1.471698284E-2,-2.515244484E-2,-1.579666138E-2
1.575285054E1,3.523063660E-2,-4.556846619E-2,2.360534668E-2
1.576292134E1,2.523875237E-2,-3.789687157E-2,1.959419250E-2
1.577299215E1,1.826727390E-2,-3.528404236E-2,3.430461884E-2
1.578309346E1,2.842092514E-2,-5.230021477E-2,2.253341675E-2
1.579316426E1,3.177690506E-2,-5.980730057E-2,1.312255859E-2
1.580323506E1,1.851785183E-2,-2.756524086E-2,-1.273822784E-2
1.581330586E1,1.033210754E-2,-1.520133018E-2,-3.824043274E-2
1.582337667E1,1.156592369E-2,-1.786971092E-2,-2.809238434E-2
1.583344747E1,-1.777350903E-2,-2.562284470E-3,-1.371479034E-2
1.584351827E1,-6.825447083E-3,-2.400708199E-2,-4.434585571E-3
1.585358907E1,-8.029580116E-3,-2.218484879E-2,3.280925751E-2
1.586369039E1,3.622770309E-3,-1.651239395E-2,7.617950439E-3
1.587376119E1,1.082086563E-2,-4.066419601E-2,2.020454407E-2
1.588383199E1,8.327960968E-3,-3.100991249E-2,1.079845428E-2
1.589390279E1,2.791047096E-3,-1.436281204E-2,-2.016735077E-2
1.590397359E1,-1.726698875E-2,2.840042114E-3,-3.903293610E-2
1.591404439E1,-9.183764458E-3,2.394032478E-2,-6.216716766E-2
1.592411519E1,-1.182305813E-2,-1.722455025E-2,-2.104759216E-2
1.593421651E1,-4.277229309E-3,-2.074408531E-2,2.144622803E-2
1.594428731E1,6.630420685E-3,3.943681717E-3,1.560211182E-3
1.595435811E1,1.271450520E-2,-3.085446358E-2,2.716445923E-2
1.596442891E1,2.160882950E-2,-4.621338844E-2,3.325176239E-2
1.597449971E1,1.186048985E-2,-2.396440506E-2,1.787948608E-2
1.598457051E1,1.174747944E-2,-2.879953384E-2,2.889633179E-4
1.599464132E1,8.886575699E-3,-1.798176765E-2,-2.173805237E-2
1.600474263E1,8.327484131E-3,-8.133888245E-3,-3.874397278E-2
1.601481343E1,1.887190342E-2,-5.692005157E-3,-3.874778748E-2
1.602488423E1,2.358126640E-2,-1.539421082E-2,-3.853034973E-2
1.603495504E1,2.759802341E-2,-2.303195000E-2,-3.101444244E-2
1.604502584E1,-8.411407471E-4,4.965066910E-3,3.301715851E-2
1.605509664E1,5.697011948E-4,-9.787082672E-4,5.903244019E-3
1.606516744E1,1.155877113E-2,-4.025268555E-2,1.724243164E-2
1.607526876E1,1.272165775E-2,-7.003712654E-2,-7.915496826E-5
1.608533956E1,6.896615028E-3,-3.845548630E-2,6.577491760E-3
1.609541036E1,8.740305901E-3,-9.915232658E-3,-1.059722900E-2
1.610548116E1,-8.079528809E-3,1.320564747E-2,-2.029418945E-2
1.611555196E1,3.739595413E-3,2.097296715E-2,-4.651641846E-2
1.612562276E1,1.453256607E-2,1.684176922E-2,-2.924251556E-2
1.613569356E1,5.508542061E-3,-1.732230186E-3,-2.165699005E-2
1.614579488E1,3.109896183E-2,-3.780531883E-2,-1.644039154E-2
1.615586568E1,2.578377724E-2,-4.812145233E-2,2.409076691E-2
1.616593648E1,-1.790165901E-3,-1.725864410E-2,2.616786957E-2
1.617600728E1,-2.400636673E-3,-3.955841064E-3,1.382541656E-2
1.618607808E1,4.046320915E-3,-3.175318241E-2,1.112747192E-2
1.619614888E1,1.071369648E-2,-3.101480007E-2,-3.443241119E-2
1.620621968E1,-4.510641098E-3,-1.888990402E-3,-5.578994751E-2
1.621632100E1,-1.278269291E-2,7.257819176E-3,-6.266784668E-2
1.622639180E1,5.360960960E-3,2.296090126E-2,-8.138847351E-2
1.623646260E1,-7.550597191E-3,-9.639382362E-3,-2.590274811E-2
1.624653340E1,6.470561028E-3,-4.733812809E-2,-1.832962036E-2
1.625660421E1,-6.301403046E-3,-2.329552174E-2,-6.312751770E-2
1.626667501E1,-6.303429604E-3,-3.079521656E-2,-1.894092560E-2
1.627674581E1,-1.423954964E-3,-2.677726746E-2,-8.247375488E-3
1.628684712E1,-1.299917698E-2,2.703881264E-2,4.929542542E-3
1.629691793E1,-1.455485821E-2,2.364790440E-2,-5.648612976E-3
1.630698873E1,5.560040474E-3,-2.766668797E-2,5.461692810E-3
1.631705953E1,1.960396767E-3,-2.193069458E-2,-1.918125153E-2
1.632713033E1,-4.856705666E-3,9.466171265E-3,-2.195358276E-2
1.633720113E1,4.821181297E-3,2.857995033E-2,-3.644847870E-2
1.634727193E1,9.583353996E-3,5.456894636E-2,-6.262302399E-2
1.635737325E1,4.320502281E-3,3.497165442E-2,-6.214427948E-2
1.636744405E1,1.085686684E-2,2.313321829E-2,-4.224586487E-2
1.637751485E1,2.183949947E-2,-1.975727081E-2,-3.023147583E-3
1.638758565E1,2.579808235E-2,-7.055377960E-2,2.188014984E-2
1.639765645E1,3.000640869E-2,-5.074346066E-2,-9.984970093E-4
1.640772725E1,1.744210720E-2,-3.230166435E-2,-2.604961395E-2
1.641779805E1,7.271766663E-5,-2.459233999E-2,-4.609298706E-2
1.642789937E1,3.515958786E-3,-6.392896175E-3,-6.815528870E-2
1.643797017E1,8.132100105E-3,-4.403328896E-2,-4.909992218E-2
1.644804097E1,1.737535000E-2,-2.193120122E-2,-2.976894379E-2
1.645811177E1,-2.037048340E-3,3.092882037E-2,-2.696132660E-2
1.646818257E1,-8.077144623E-3,6.668379903E-2,2.603149414E-2
1.647825338E1,-3.166913986E-3,1.818713546E-2,1.918220520E-2
1.648832418E1,4.951179028E-2,-3.472214937E-2,1.245517731E-1
1.649842549E1,5.155658722E-2,7.643157244E-2,-1.346969604E-2
1.650849630E1,1.507449150E-2,6.092153490E-2,-2.703933716E-1
1.651856710E1,-5.171298981E-3,-9.666338563E-3,-6.080341339E-2
1.652863790E1,1.215815544E-3,2.246439457E-3,5.402088165E-2
1.653870870E1,8.222222328E-3,-1.616252959E-2,-8.328437805E-3
1.654877950E1,-4.488945007E-3,2.926781774E-3,-7.554340363E-2
1.655885030E1,-2.200484276E-2,5.286180973E-2,-3.263664246E-2
1.656895162E1,-7.369041443E-3,3.770115972E-2,8.037567139E-3
1.657902242E1,1.341235638E-2,2.564649284E-2,-3.002738953E-2
1.658909322E1,1.501917839E-2,2.769884467E-2,-4.889869690E-2
1.659916402E1,1.230013371E-2,2.254682779E-2,-7.974624634E-2
1.660923482E1,2.087330818E-2,4.789680243E-4,-3.153705597E-2
1.661930562E1,7.811069489E-3,-1.241709292E-2,-3.602981567E-2
1.662937642E1,-4.425048828E-4,-4.248261452E-3,-6.918334961E-2
1.663947774E1,-8.519411087E-3,8.631274104E-3,-6.072425842E-2
1.664954854E1,2.902746201E-3,-1.341551542E-4,-2.888107300E-2
1.665961934E1,1.447379589E-2,1.907348633E-6,-3.083229065E-2
1.666969014E1,1.679372787E-2,2.538160980E-2,-3.503894806E-2
1.667976094E1,1.206994057E-2,2.654545009E-2,-2.508068085E-2
1.668983174E1,7.055640221E-3,2.257764339E-2,-2.462577820E-2
1.669990254E1,2.152955532E-2,1.879024506E-2,-2.665615082E-2
1.671000386E1,7.293701172E-3,1.738508046E-2,-2.390289307E-2
1.672007466E1,8.573532104E-4,3.002142906E-2,-9.555816650E-3
1.673014546E1,1.137363911E-2,2.590560913E-2,2.215385437E-3
1.674021627E1,5.352258682E-3,3.391231596E-2,-2.407169342E-2
1.675028707E1,8.924722672E-3,3.002414107E-2,-2.385139465E-2
1.676035787E1,3.254175186E-3,3.111264110E-2,-2.143955231E-2
1.677042867E1,9.516000748E-3,2.997252345E-2,-3.555774689E-2
1.678049947E1,5.944013596E-3,2.170321345E-2,-5.645561218E-2
1.679060079E1,2.362251282E-3,2.337260544E-2,-5.814266205E-2
1.680067159E1,8.189201355E-3,1.114735007E-2,-5.974483490E-2
1.681074239E1,1.116287708E-2,-7.164925337E-4,-4.939556122E-2
1.682081319E1,2.139568329E-3,-5.528062582E-3,-7.010173798E-2
1.683088399E1,7.020711899E-3,-1.477311552E-2,-6.178188324E-2
1.684095479E1,4.336118698E-3,-7.225811481E-3,-3.476428986E-2
1.685105611E1,8.498311043E-3,-1.210279763E-2,-3.879737854E-2
1.686112691E1,7.909536362E-3,1.155214012E-2,-1.918697357E-2
1.687119771E1,2.680182457E-3,1.621419191E-2,2.535820007E-3
1.688126851E1,-4.705071449E-3,1.128758490E-2,2.141571045E-2
1.689133931E1,-1.955747604E-3,1.369144022E-2,-2.582550049E-3
1.690141011E1,-4.298210144E-3,8.939266205E-3,-3.090667725E-2
1.691148091E1,1.434302330E-2,1.839339733E-3,-3.725719452E-2
1.692155172E1,1.633667946E-2,1.359920204E-2,-2.248668671E-2
1.693165303E1,8.810639381E-3,1.072202623E-2,-1.493167877E-2
1.694172383E1,1.080060005E-2,2.425250411E-2,-1.467037201E-2
1.695179464E1,1.553976536E-2,2.337579429E-2,-1.209354401E-2
1.696186544E1,1.044178009E-2,8.177250624E-3,-1.655197144E-2
1.697193624E1,1.002418995E-2,7.373824716E-3,-1.153564453E-2
1.698200704E1,9.541749954E-3,2.106478810E-2,-4.907798767E-2
1.699207784E1,1.331508160E-2,2.333351970E-2,-5.280780792E-2
1.700217916E1,1.469099522E-2,7.375791669E-3,-3.528881073E-2
1.701224996E1,1.816117764E-2,-5.057007074E-4,-2.026367188E-2
1.702232076E1,1.228451729E-2,-3.571972251E-3,-1.739978790E-2
1.703239156E1,6.746888161E-3,7.341876626E-3,-3.359413147E-2
1.704246236E1,-1.407146454E-3,6.444945931E-3,-3.986263275E-2
1.705253316E1,2.347588539E-3,1.309040189E-2,-1.307392120E-2
1.706260396E1,-1.198887825E-3,-1.150310040E-3,-2.199172974E-2
1.707270528E1,-9.492278099E-3,9.021937847E-3,-1.660823822E-2
1.708277608E1,-1.305723190E-2,-1.946464181E-3,-2.075004578E-2
1.709284688E1,-1.223886013E-2,1.160655916E-2,-2.943134308E-2
1.710291768E1,-5.427598953E-3,-1.237472892E-2,-4.475212097E-2
1.711298848E1,-1.764178276E-3,-7.770419121E-3,-2.913951874E-2
1.712305928E1,-2.545952797E-3,1.103095710E-2,-3.037643433E-2
1.713313008E1,-1.741397381E-2,2.775184810E-2,-3.636646271E-2
1.714323140E1,-9.237527847E-3,1.950120926E-2,-4.900455475E-2
1.715330220E1,-4.405021667E-3,1.267391443E-2,-3.537464142E-2
1.716337300E1,2.241492271E-3,9.842127562E-3,-4.070281982E-2
1.717344380E1,-2.713084221E-3,4.384261370E-2,-2.702808380E-2
1.718351461E1,1.153302193E-2,3.923410177E-2,-6.041526794E-2
1.719358541E1,1.636922359E-2,3.479838371E-2,1.033401489E-2
1.720365621E1,1.252782345E-2,5.642309785E-2,3.494834900E-2
1.721375753E1,-3.872513771E-3,3.812649846E-2,6.133556366E-2
1.722382833E1,4.597067833E-3,-1.555609703E-2,6.366634369E-2
1.723389913E1,1.778221130E-2,-7.812380791E-3,2.812004089E-2
1.724396993E1,2.271020412E-2,6.793618202E-3,1.025772095E-2
1.725404073E1,3.066420555E-2,1.726597548E-2,1.850605011E-2
1.726411153E1,3.229570389E-2,5.983895063E-2,-2.283573151E-2
1.727418233E1,2.071404457E-2,9.517937899E-3,-3.459930420E-2
1.728428365E1,1.334297657E-2,3.484618664E-2,-5.280590057E-2
1.729435445E1,2.173614502E-2,1.892840862E-2,-1.832103729E-2
1.730442525E1,5.743265152E-3,-1.835227013E-3,1.597309113E-2
1.731449605E1,2.321219444E-2,-7.931768894E-3,6.419181824E-2
1.732456685E1,1.011419296E-2,1.325643063E-2,7.825660706E-2
1.733463765E1,1.004588604E-2,5.818033218E-2,1.455307007E-2
1.734470845E1,1.123631001E-2,6.554901600E-3,-4.129409790E-4
1.735477925E1,2.099752426E-2,2.015084028E-2,-5.019187927E-3
1.736488057E1,-5.898714066E-3,2.911645174E-2,2.163410187E-2
1.737495137E1,-1.561963558E-2,3.066027164E-2,1.492118835E-2
1.738502217E1,2.136349678E-3,4.464805126E-2,1.091289520E-2
1.739509298E1,-1.131165028E-2,4.631173611E-2,2.861022949E-5
1.740516378E1,1.384854317E-3,3.284943104E-2,8.515357971E-3
1.741523458E1,1.179957390E-2,-3.373503685E-3,1.707839966E-2
1.742530538E1,-6.597995758E-3,1.415598392E-2,2.095794678E-2
1.743540670E1,-1.056814194E-2,3.556787968E-2,-6.098747253E-3
1.744547750E1,4.592895508E-3,4.262602329E-2,-3.283691406E-2
1.745554830E1,6.321549416E-3,3.157794476E-2,-1.104736328E-2
1.746561910E1,2.161109447E-2,-2.094256878E-2,4.242134094E-2
1.747568990E1,2.154517174E-2,-3.864812851E-2,3.614807129E-2
1.748576070E1,1.540625095E-2,-5.218291283E-2,2.510070801E-2
1.749583150E1,3.062129021E-3,-2.138757706E-2,4.745483398E-2
1.750593282E1,-3.159642220E-3,4.677402973E-2,3.139019012E-2
1.751600362E1,2.221465111E-3,2.964830399E-2,-6.054878235E-3
1.752607442E1,1.389622688E-2,-3.944921494E-2,-9.882926941E-3
1.753614522E1,1.482665539E-2,-3.908979893E-2,-3.997898102E-2
1.754621602E1,8.870482445E-3,-4.338550568E-2,-2.436923981E-2
1.755628682E1,-1.869082451E-3,2.793788910E-2,7.658004761E-4
1.756638814E1,-1.377975941E-2,7.262706757E-2,1.855850220E-3
1.757645894E1,-8.297085762E-3,7.208013535E-2,1.978492737E-2
1.758652974E1,9.164810181E-3,8.038759232E-3,5.000305176E-2
1.759660054E1,1.697671413E-2,-5.545282364E-2,7.802009583E-2
1.760667134E1,2.490329742E-2,-5.218648911E-2,6.783771515E-2
1.761674214E1,-7.237195969E-4,-4.675388336E-3,6.721973419E-2
1.762681294E1,-1.512908936E-2,3.472518921E-2,2.322578430E-2
1.763691426E1,9.160518646E-3,2.548789978E-2,-1.591873169E-2
1.764698507E1,1.824009418E-2,-1.165914536E-2,-1.202392578E-2
1.765705586E1,1.916456223E-2,-1.998996735E-2,-1.073455811E-2
1.766712667E1,-1.868247986E-3,3.378820419E-2,-1.222133636E-2
1.767719747E1,8.064270020E-3,4.559278488E-2,-5.444717407E-2
1.768726827E1,3.055858612E-2,2.477979660E-2,-6.480884552E-2
1.769733907E1,2.568233013E-2,-9.292840958E-3,1.257419586E-2
1.770744039E1,4.393088818E-2,-1.057107449E-1,1.174812317E-1
1.771751119E1,5.159389973E-2,-1.085662842E-1,9.839057922E-2
1.772758199E1,-5.734205246E-3,-8.803915977E-2,1.130390167E-1
1.773765279E1,-1.853215694E-2,-5.272817612E-2,8.876609802E-2
1.774772359E1,-2.229475975E-2,6.089210510E-3,3.022003174E-2
1.775779439E1,-1.439297199E-2,-7.626533508E-3,1.844692230E-2
1.776786519E1,-3.079307079E-2,3.459620476E-2,-1.617145538E-2
1.777793599E1,-5.178415775E-2,7.523822784E-2,-1.112079620E-2
1.778803731E1,-1.559340954E-2,4.109001160E-2,-6.893348694E-2
1.779810811E1,2.592444420E-2,2.730822563E-2,-4.526615143E-2
1.780817891E1,3.887999058E-2,-2.261090279E-2,2.641677856E-3
1.781824971E1,3.686940670E-2,-5.351877213E-2,5.054569244E-2
1.782832051E1,1.803922653E-2,-4.440593719E-2,5.998325348E-2
1.783839132E1,9.091615677E-3,-6.166887283E-2,8.372688293E-2
1.784846212E1,-6.471872330E-4,-5.565047264E-2,1.140661240E-1
1.785856343E1,-2.720475197E-3,-1.939845085E-2,1.004962921E-1
1.786863423E1,2.383947372E-3,3.653526306E-3,9.679794312E-3
1.787870504E1,9.256005287E-3,-5.323648453E-3,-4.276657104E-2
1.788877584E1,7.493734360E-3,-1.269793510E-2,-1.375675201E-2
1.789884664E1,1.692152023E-2,-1.097702980E-2,-1.570892334E-2
1.790891744E1,3.433799744E-2,-2.645039558E-2,7.955551147E-3
1.791898824E1,2.579951286E-2,-3.082919121E-2,-1.876544952E-2
1.792908956E1,2.619767189E-2,-5.327248573E-2,-2.108573914E-2
1.793916036E1,2.293145657E-2,-6.680059433E-2,2.439498901E-3
1.794923116E1,1.103067398E-2,-6.172609329E-2,5.669307709E-2
1.795930196E1,4.044175148E-3,-1.943135262E-2,6.256294250E-2
1.796937276E1,-1.806378365E-2,-1.954841614E-2,9.888458252E-2
1.797944356E1,-1.389658451E-2,-5.163192749E-3,8.481311798E-2
1.798951436E1,3.181457520E-3,-3.163456917E-2,5.868911743E-2
1.799958516E1,6.353259087E-3,-2.507305145E-2,3.026771545E-2
1.800968648E1,1.879882812E-2,7.511377335E-3,7.202148438E-3
1.801975728E1,6.867170334E-3,-2.432823181E-3,1.391410828E-3
1.802982808E1,2.565169334E-2,-2.589917183E-2,2.188110352E-2
1.803989888E1,2.017652988E-2,-1.174402237E-2,2.301120758E-2
1.804996968E1,3.353941441E-2,-3.665924072E-2,3.564929962E-2
1.806004048E1,2.563750744E-2,-4.370713234E-2,2.843856812E-2
1.807011128E1,8.763194084E-3,-1.199507713E-2,1.872634888E-2
1.808021260E1,9.289622307E-3,-3.891277313E-2,2.975749969E-2
1.809028340E1,7.708430290E-3,-1.687479019E-2,-5.626678467E-5
1.810035421E1,-3.721117973E-3,-1.457810402E-2,-5.740165710E-3
1.811042501E1,3.593683243E-3,-4.266810417E-2,1.242542267E-2
1.812049581E1,1.320099831E-2,-5.732655525E-2,1.418495178E-2
1.813056661E1,2.963936329E-2,-4.880905151E-2,3.536796570E-2
1.814063741E1,3.391993046E-2,-8.585166931E-2,3.843116760E-2
1.815073873E1,1.182067394E-2,-3.689289093E-3,3.390312195E-2
1.816080953E1,-7.473826408E-3,2.925634384E-3,1.290893555E-2
1.817088033E1,-2.351963520E-2,-2.052378654E-2,3.874969482E-2
1.818095113E1,-1.689219475E-2,1.793122292E-2,4.904937744E-2
1.819102193E1,-6.111621857E-3,9.311199188E-3,-2.858257294E-2
1.820109273E1,8.139967918E-3,-1.197600365E-2,-8.325576782E-3
1.821119405E1,-6.427288055E-3,-2.469134331E-2,-1.481342316E-2
1.822126485E1,1.206696033E-2,-3.835248947E-2,-1.202201843E-2
1.823133565E1,1.576483250E-2,-7.630944252E-2,1.638698578E-2
1.824140645E1,2.736890316E-2,-7.193470001E-2,3.199195862E-2
1.825147725E1,1.591670513E-2,-2.876424789E-2,1.599597931E-2
1.826154805E1,5.099892616E-3,-6.969451904E-3,-2.159404755E-2
1.827161885E1,-3.583312035E-3,-6.886243820E-3,-2.624702454E-2
1.828172017E1,6.472110748E-3,1.498937607E-2,8.730888367E-3
1.829179097E1,2.564227581E-2,2.917766571E-3,-1.830863953E-2
1.830186177E1,3.276765347E-2,-2.736282349E-2,9.524345398E-3
1.831193257E1,2.150404453E-2,-3.569483757E-2,3.205108643E-2
1.832200338E1,1.966762543E-2,-4.886507988E-2,3.531360626E-2
1.833207418E1,3.157961369E-2,-7.653784752E-2,5.734252930E-2
1.834214498E1,1.809930801E-2,-5.695152283E-2,5.736160278E-2
1.835221578E1,1.284015179E-2,-2.620530128E-2,3.589534760E-2
1.836231710E1,1.273465157E-2,-1.760411263E-2,1.932525635E-2
1.837238790E1,-3.710865974E-3,1.185369492E-2,-6.520271301E-3
1.838245870E1,-1.530313492E-2,3.239154816E-3,-1.991653442E-2
1.839252950E1,-1.269030571E-2,-1.770687103E-2,-1.681804657E-2
1.840260030E1,-2.238941193E-2,-3.184127808E-2,7.362365723E-3
1.841267110E1,-1.316165924E-2,-1.842570305E-2,2.476692200E-3
1.842274190E1,3.546476364E-4,-2.978563309E-2,4.614830017E-3
1.843284322E1,1.085400581E-2,-3.190636635E-2,1.611900330E-2
1.844291402E1,1.439118385E-2,-2.711272240E-2,8.420944214E-3
1.845298482E1,3.265261650E-3,-1.345396042E-2,8.506774902E-4
1.846305562E1,6.215214729E-3,-3.288745880E-3,-6.796836853E-3
1.847312642E1,-1.913595200E-2,-1.105165482E-2,4.172325134E-3
1.848319722E1,-8.368253708E-3,-9.152889252E-4,-6.743431091E-3
1.849326802E1,1.158630848E-2,-2.520656586E-2,-5.825996399E-3
1.850336934E1,5.401372910E-4,-2.615189552E-2,-1.000785828E-2
1.851344014E1,1.793146133E-3,-2.278304100E-2,9.510993958E-3
1.852351094E1,3.453135490E-3,-3.435587883E-2,1.186561584E-2
1.853358174E1,2.196955681E-2,-5.106091499E-2,1.629924774E-2
1.854365254E1,7.074952126E-3,-2.319264412E-2,2.293491364E-2
1.855372335E1,1.860225201E-2,-1.480627060E-2,1.524162292E-2
1.856379415E1,3.289186954E-2,-6.360578537E-2,2.170372009E-2
1.857389546E1,1.910007000E-2,-6.990027428E-2,4.198741913E-2
1.858396627E1,1.290047169E-2,-1.318097115E-2,-9.359359741E-3
1.859403707E1,2.264940739E-2,-1.000809669E-2,-5.005836487E-2
1.860410787E1,2.734243870E-2,-4.712939262E-2,-1.463508606E-2
1.861417867E1,2.992820740E-2,-8.924484253E-3,-5.567455292E-2
1.862424947E1,-3.713250160E-3,1.052379608E-3,-6.051635742E-2
1.863432027E1,-1.557016373E-2,-5.335569382E-3,-4.000663757E-2
1.864442159E1,-8.760452271E-3,7.232904434E-3,-3.909778595E-2
1.865449239E1,-5.285620689E-3,1.344752312E-2,-1.707077026E-2
1.866456319E1,-4.499912262E-3,9.090900421E-3,-9.705543518E-3
1.867463399E1,-3.598093987E-3,-7.865428925E-3,-7.151603699E-3
1.868470479E1,-5.732774734E-4,-6.211519241E-3,1.422595978E-2
1.869477559E1,6.984829903E-3,-2.172994614E-2,1.879787445E-2
1.870484639E1,4.169940948E-4,-1.372671127E-2,1.615905762E-2
1.871494771E1,5.691409111E-3,-2.505970001E-2,-2.768516541E-3
1.872501851E1,3.506898880E-2,-6.210422516E-2,1.642513275E-2
1.873508931E1,6.108164787E-3,-3.264331818E-2,9.158134460E-3
1.874516011E1,-1.264595985E-2,-9.280443192E-3,-1.001739502E-2
1.875523091E1,1.133143902E-2,3.443241119E-3,-4.797744751E-2
1.876530172E1,2.250707150E-2,-4.241609573E-2,-5.252361298E-2
1.877537252E1,1.121973991E-2,-4.893660545E-2,-4.981231689E-2
1.878544332E1,1.386880875E-3,-1.881003380E-3,-3.506374359E-2
1.879554464E1,-6.275415421E-3,1.972675323E-2,-2.515029907E-2
1.880561544E1,-4.395127296E-3,-1.465177536E-2,-1.524925232E-2
1.881568624E1,2.230644226E-3,-2.310037613E-2,-2.192306519E-2
1.882575704E1,1.609623432E-2,-4.885911942E-3,1.710796356E-2
1.883582784E1,1.218152046E-2,-1.026690006E-2,1.065731049E-2
1.884589864E1,9.204506874E-3,-2.458631992E-2,1.633644104E-2
1.885596944E1,9.468555450E-3,-2.151238918E-2,1.497650146E-2
1.886607076E1,1.255083084E-2,-3.030729294E-2,1.618099213E-2
1.887614156E1,6.031036377E-3,-3.457856178E-2,8.004188538E-3
1.888621236E1,1.333570480E-2,-2.293813229E-2,-3.341007233E-2
1.889628316E1,1.226735115E-2,-2.540469170E-3,-5.047798157E-2
1.890635396E1,5.444288254E-4,2.905428410E-2,-6.237316132E-2
1.891642476E1,1.980590820E-2,1.486766338E-2,-4.297637939E-2
1.892649556E1,2.704465389E-2,-1.858103275E-2,-3.534412384E-2
1.893659688E1,2.655553818E-2,-3.856086731E-2,-1.795291901E-2
1.894666768E1,2.280437946E-2,-5.507862568E-2,-1.469135284E-2
1.895673848E1,7.474541664E-3,-2.272987366E-2,-2.575016022E-2
1.896680928E1,-6.765007973E-3,-5.842447281E-4,-1.047706604E-2
1.897688008E1,-2.393722534E-4,2.364993095E-3,2.623653412E-2
1.898695089E1,1.195669174E-4,2.476668358E-2,-1.351833344E-2
1.899702169E1,9.828567505E-3,1.682031155E-2,-3.600978851E-2
1.900712300E1,1.917719841E-3,-8.079826832E-3,-3.413963318E-2
1.901719380E1,6.120204926E-3,-2.118837833E-2,-1.532363892E-2
1.902726461E1,-1.946210861E-3,-2.075970173E-3,-2.977275848E-2
1.903733541E1,2.667307854E-3,-9.052217007E-3,-4.850482941E-2
1.904740621E1,1.639604568E-3,-4.896384478E-2,-4.295158386E-2
1.905747701E1,-3.145933151E-4,-2.367073298E-2,-4.418563843E-2
1.906754781E1,-1.452326775E-2,3.397709131E-2,-5.942630768E-2
1.907764913E1,-4.718184471E-3,7.963657379E-2,-6.228828430E-2
1.908771993E1,-6.483316422E-3,7.372835279E-2,-2.415847778E-2
1.909779073E1,-9.258627892E-3,2.797234058E-2,3.308391571E-2
1.910786153E1,2.012372017E-3,-1.189380884E-2,3.518199921E-2
1.911793233E1,1.739895344E-2,-6.672272086E-2,7.561397552E-2
1.912800313E1,6.920921803E-2,-3.166231513E-2,5.220890045E-2
1.913807393E1,7.353091240E-2,1.937623322E-2,-1.558370590E-1
1.914817525E1,2.020061016E-2,-4.808004200E-2,-6.764984131E-2
1.915824605E1,2.981710434E-2,-6.653490663E-2,1.026821136E-2
1.916831685E1,1.446306705E-2,-2.810589969E-2,-1.881504059E-2
1.917838765E1,2.407753468E-2,-6.768390536E-3,-9.339332581E-2
1.918845845E1,7.149934769E-3,4.291769862E-2,-1.150836945E-1
1.919852925E1,1.262032986E-2,3.262932599E-2,-4.318904877E-2
1.920860006E1,5.007147789E-3,3.507050872E-2,-5.014228821E-2
1.921867086E1,1.177644730E-2,3.003698587E-2,-4.750728607E-2
1.922877217E1,1.670634747E-2,1.775100827E-2,-4.738426208E-2
1.923884298E1,2.584481239E-2,5.041316152E-3,-6.149864197E-2
1.924891378E1,2.248728275E-2,8.520215750E-3,-3.486251831E-2
1.925898458E1,1.237070560E-2,1.981139183E-3,-1.793003082E-2
1.926905538E1,1.185584068E-2,7.122173905E-3,-4.365825653E-2
1.927912618E1,4.034042358E-3,1.205374300E-2,-1.067914963E-1
1.928919698E1,-2.941846848E-3,1.672928035E-2,-3.184604645E-2
1.929929830E1,-5.115866661E-3,2.570319176E-2,-3.372669220E-2
1.930936910E1,-2.576112747E-4,3.449253738E-2,-1.896858215E-2
1.931943990E1,1.429367065E-2,2.902065217E-2,-2.350044250E-2
1.932951070E1,1.646494865E-2,2.134604752E-2,-2.307987213E-2
1.933958150E1,2.302491665E-2,2.051657438E-2,-4.867172241E-2
1.934965230E1,1.975190639E-2,1.968786120E-2,-1.701545715E-2
1.935972310E1,1.956558228E-2,2.368389070E-2,-3.572654724E-2
1.936982442E1,9.867191315E-3,2.762921154E-2,-2.326393127E-2
1.937989522E1,6.018877029E-4,2.993904054E-2,-3.716182709E-2
1.938996602E1,4.942774773E-3,1.887293160E-2,-4.588222504E-2
1.940003682E1,8.689045906E-3,1.785524189E-2,-5.444622040E-2
1.941010762E1,3.051638603E-3,2.813443542E-3,-5.335712433E-2
1.942017842E1,-5.483031273E-3,6.719842553E-3,-4.268836975E-2
1.943024922E1,-3.835320473E-3,5.618676543E-3,-4.415893555E-2
1.944035054E1,2.620935440E-3,-5.051866174E-3,-4.796314240E-2
1.945042134E1,-7.114410400E-4,7.925480604E-4,-6.118679047E-2
1.946049214E1,5.198836327E-3,-3.015264869E-3,-5.984687805E-2
1.947056294E1,1.678347588E-3,9.769126773E-3,-2.554798126E-2
1.948063375E1,8.884668350E-4,-1.634076238E-3,-3.754615784E-3
1.949070455E1,-4.764556885E-3,-3.695994616E-3,-1.527595520E-2
1.950077535E1,8.169293404E-3,8.201718330E-3,4.239082336E-3
1.951087667E1,1.451897621E-2,1.026314497E-2,4.258155823E-3
1.952094747E1,4.483938217E-3,7.434278727E-3,-1.942920685E-2
1.953101827E1,1.325273514E-2,9.525209665E-3,-4.967021942E-2
1.954108907E1,1.888394356E-2,3.075331450E-2,-2.729988098E-2
1.955115987E1,2.512764931E-2,1.911929250E-2,-5.523681641E-3
1.956123067E1,2.434003353E-2,3.002882004E-3,-1.002502441E-2
1.957133199E1,3.286910057E-2,2.764029801E-2,-9.795188904E-3
1.958140279E1,2.747809887E-2,2.876375616E-2,-3.077125549E-2
1.959147359E1,1.698088646E-2,6.656914949E-3,-3.481960297E-2
1.960154439E1,3.844022751E-3,2.016149461E-2,-4.814434052E-2
1.961161519E1,2.565860748E-3,9.416177869E-3,-2.099895477E-2
1.962168599E1,1.705646515E-3,-3.856152296E-3,-1.344871521E-2
1.963175679E1,-3.374934196E-3,6.344541907E-3,-3.678607941E-2
1.964182759E1,-3.601431847E-3,2.080053091E-3,-2.663707733E-2
1.965192891E1,-8.087038994E-3,9.809210896E-3,-2.146434784E-2
1.966199971E1,-7.972240448E-3,-1.261472702E-3,-4.234790802E-2
1.967207051E1,-1.703619957E-3,1.817047596E-4,-2.721691132E-2
1.968214132E1,-2.374529839E-3,-2.906993032E-3,-1.245403290E-2
1.969221212E1,-3.068447113E-3,3.516376019E-3,-4.282188416E-2
1.970228292E1,-4.224300385E-3,1.730597019E-2,-5.122280121E-2
1.971235372E1,-1.265037060E-2,2.424992621E-2,-1.930809021E-2
1.972245504E1,4.382133484E-4,5.718380213E-3,-3.756427765E-2
1.973252584E1,7.703304291E-3,2.587094903E-3,-4.824733734E-2
1.974259664E1,4.027605057E-3,2.688257396E-2,-5.607128143E-2
1.975266744E1,8.563876152E-3,4.844182730E-2,-5.395412445E-2
1.976273824E1,1.834535599E-2,1.800629497E-2,-1.839256287E-2
1.977280904E1,1.927196980E-2,1.387688518E-2,4.011726379E-2
1.978287984E1,2.019369602E-2,1.846835017E-2,3.103828430E-2
1.979298116E1,1.518428326E-2,9.334325790E-3,3.171920776E-3
1.980305196E1,6.722569466E-3,2.944836020E-2,-1.520538330E-2
1.981312276E1,1.024246216E-2,4.367369413E-2,-1.642799377E-2
1.982319356E1,1.155138016E-2,9.880751371E-3,2.729415894E-2
1.983326436E1,1.841461658E-2,-7.398486137E-3,1.332950592E-2
1.984333516E1,1.806974411E-2,-5.738407373E-3,-2.613449097E-2
1.985340596E1,3.746867180E-2,-1.808318496E-2,-5.399703979E-3
1.986350728E1,3.919184208E-2,3.546804190E-3,1.227378845E-3
1.987357808E1,1.986205578E-2,3.314107656E-2,-8.643150330E-3
1.988364888E1,1.529335976E-2,3.285700083E-2,8.735656738E-4
1.989371968E1,8.253335953E-3,8.741927147E-2,1.764011383E-2
1.990379048E1,-5.524873734E-3,1.201331019E-1,2.962779999E-2
1.991386129E1,-4.719376564E-3,5.513733625E-2,2.756118774E-2
1.992393209E1,1.078987122E-2,9.043395519E-3,1.603412628E-2
1.993403340E1,6.286859512E-3,4.348158836E-4,1.727962494E-2
1.994410421E1,3.679323196E-2,-4.660618305E-2,2.581596375E-2
1.995417501E1,2.198672295E-2,-1.078873873E-2,3.239154816E-2
1.996424581E1,5.815386772E-3,5.220705271E-2,-3.435134888E-3
1.997431661E1,-2.587580681E-2,7.024729252E-2,-2.419567108E-2
1.998438741E1,-2.305459976E-2,8.395397663E-2,-1.155853271E-2
1.999445821E1,-1.392626762E-2,4.285430908E-2,-1.978778839E-2
2.000455953E1,1.761603355E-2,-2.246022224E-3,5.648612976E-3
2.001463033E1,1.442527771E-2,-1.148808002E-2,-2.818393707E-2
2.002470113E1,1.947307587E-2,2.642095089E-2,-2.051067352E-2
2.003477193E1,1.900899410E-2,4.105591774E-2,-9.593009949E-3
2.004484273E1,1.403307915E-2,3.881931305E-3,3.071975708E-2
2.005491353E1,3.128540516E-2,-7.913315296E-2,8.578300476E-2
2.006498433E1,1.747584343E-2,-4.491019249E-2,5.510902405E-2
2.007508565E1,-1.974928379E-2,5.091655254E-2,3.194332123E-2
2.008515645E1,-1.690077782E-2,7.760310173E-2,3.525638580E-2
2.009522725E1,3.456950188E-3,5.072045326E-2,2.952194214E-2
2.010529805E1,6.970047951E-3,1.828515530E-2,2.931499481E-2
